step,time,sp_x,sp_y,sp_z,sp_yaw_rate,pos_x,pos_y,pos_z,vel_x,vel_y,vel_z,roll,pitch,yaw,gyro_x,gyro_y,gyro_z,vel_sp_x,vel_sp_y,vel_sp_z,pidVX_err,pidVX_P,pidVX_I,pidVX_integ,pidVY_err,pidVY_P,pidVY_I,pidVY_integ,pidVZ_err,pidVZ_P,pidVZ_I,pidVZ_integ,thrust_raw,att_roll_d,att_pitch_d,att_yaw_d,rate_roll_d,rate_pitch_d,rate_yaw_d,pidRoll_err,pidRoll_integ,pidPitch_err,pidPitch_integ,roll_cmd,pitch_cmd,yaw_cmd,pidRR_err,pidRR_P,pidRR_I,pidRR_integ,pidPR_err,pidPR_P,pidPR_I,pidPR_integ,thrust,m1,m2,m3,m4,rpm0,rpm1,rpm2,rpm3
0,0.0,0.0,0.0,0.0,0.0,0.0,0.0,0.019902003996748383,0.0,0.0,-0.03919759428472681,0.0,0.0,0.0,0.0,-0.0,0.0,0.0,0.0,-0.03990351801348051,0.0,0.0,0.0,0.0,0.0,0.0,0.0,0.0,-0.0007059237287537004,-0.01764809321884251,-0.00010588855931305506,-7.059237287537004e-06,-0.017753981778155566,-0.0,-0.0,0.0,0.0,0.0,0.0,-0.0,0.0,-0.0,0.0,0,0,0,0.0,0.0,0.0,0.0,0.0,0.0,0.0,0.0,35982.24601822184,35982.24601822184,35982.24601822184,35982.24601822184,35982.24601822184,1461.9328982971751,1461.9328982971751,1461.9328982971751,1461.9328982971751
1,0.002,0.0,0.0,6.663703703703704e-07,0.0,0.0,0.0,0.019794514282951054,0.0,0.0,-0.05859380373431976,0.0,0.0,0.0,0.0,-0.0,0.0,0.0,0.0,-0.03990351801348051,0.0,0.0,0.0,0.0,0.0,0.0,0.0,0.0,-0.0007059237287537004,-0.01764809321884251,-0.00010588855931305506,-7.059237287537004e-06,-0.017753981778155566,-0.0,-0.0,0.0,0.0,0.0,0.0,-0.0,0.0,-0.0,0.0,0,0,0,0.0,0.0,0.0,0.0,0.0,0.0,0.0,0.0,35982.24601822184,35982.24601822184,35982.24601822184,35982.24601822184,35982.24601822184,2790.9628058400613,2790.9628058400613,2790.9628058400613,2790.9628058400613
2,0.004,0.0,0.0,2.6642962962962965e-06,0.0,0.0,0.0,0.01964902853207857,0.0,0.0,-0.07745909097356841,0.0,0.0,0.0,0.0,-0.0,0.0,0.0,0.0,-0.03990351801348051,0.0,0.0,0.0,0.0,0.0,0.0,0.0,0.0,-0.0007059237287537004,-0.01764809321884251,-0.00010588855931305506,-7.059237287537004e-06,-0.017753981778155566,-0.0,-0.0,0.0,0.0,0.0,0.0,-0.0,0.0,-0.0,0.0,0,0,0,0.0,0.0,0.0,0.0,0.0,0.0,0.0,0.0,35982.24601822184,35982.24601822184,35982.24601822184,35982.24601822184,35982.24601822184,3999.171812697231,3999.171812697231,3999.171812697231,3999.171812697231
3,0.006,0.0,0.0,5.992e-06,0.0,0.0,0.0,0.019466966967163987,0.0,0.0,-0.09555453919867786,0.0,0.0,0.0,0.0,-0.0,0.0,0.0,0.0,-0.03990351801348051,0.0,0.0,0.0,0.0,0.0,0.0,0.0,0.0,-0.0007059237287537004,-0.01764809321884251,-0.00010588855931305506,-7.059237287537004e-06,-0.017753981778155566,-0.0,-0.0,0.0,0.0,0.0,0.0,-0.0,0.0,-0.0,0.0,0,0,0,0.0,0.0,0.0,0.0,0.0,0.0,0.0,0.0,35982.24601822184,35982.24601822184,35982.24601822184,35982.24601822184,35982.24601822184,5097.54363711284,5097.54363711284,5097.54363711284,5097.54363711284
4,0.008,0.0,0.0,1.0647703703703705e-05,0.0,0.0,0.0,0.01925012030471813,0.0,0.0,-0.11271279133068027,0.0,0.0,0.0,0.0,-0.0,0.0,0.0,0.0,-0.03990351801348051,0.0,0.0,0.0,0.0,0.0,0.0,0.0,0.0,-0.0007059237287537004,-0.01764809321884251,-0.00010588855931305506,-7.059237287537004e-06,-0.017753981778155566,-0.0,-0.0,0.0,0.0,0.0,0.0,-0.0,0.0,-0.0,0.0,0,0,0,0.0,0.0,0.0,0.0,0.0,0.0,0.0,0.0,35982.24601822184,35982.24601822184,35982.24601822184,35982.24601822184,35982.24601822184,6096.063477490667,6096.063477490667,6096.063477490667,6096.063477490667
5,0.01,0.0,0.0,1.6629629629629632e-05,0.0,0.0,0.0,0.019000529364561113,0.0,0.0,-0.1288228971811408,0.0,0.0,0.0,0.0,-0.0,0.0,0.0,0.0,-0.03816222898852136,0.0,0.0,0.0,0.0,0.0,0.0,0.0,0.0,0.09066066819261942,2.2665167048154853,0.013493211669579858,0.0008995474446386573,2.2800099164850653,-0.0,-0.0,0.0,0.0,0.0,0.0,-0.0,0.0,-0.0,0.0,0,0,0,0.0,0.0,0.0,0.0,0.0,0.0,0.0,0.0,38280.00991648507,38280.00991648507,38280.00991648507,38280.00991648507,38280.00991648507,7049.764724449857,7049.764724449857,7049.764724449857,7049.764724449857
6,0.012,0.0,0.0,2.3936e-05,0.0,0.0,0.0,0.018720481372376828,0.0,0.0,-0.14375756976560547,0.0,0.0,0.0,0.0,-0.0,0.0,0.0,0.0,-0.03816222898852136,0.0,0.0,0.0,0.0,0.0,0.0,0.0,0.0,0.09066066819261942,2.2665167048154853,0.013493211669579858,0.0008995474446386573,2.2800099164850653,-0.0,-0.0,0.0,0.0,0.0,0.0,-0.0,0.0,-0.0,0.0,0,0,0,0.0,0.0,0.0,0.0,0.0,0.0,0.0,0.0,38280.00991648507,38280.00991648507,38280.00991648507,38280.00991648507,38280.00991648507,7916.765858049121,7916.765858049121,7916.765858049121,7916.765858049121
7,0.014,0.0,0.0,3.256503703703704e-05,0.0,0.0,0.0,0.018412388699909552,0.0,0.0,-0.15747580667635114,0.0,0.0,0.0,0.0,-0.0,0.0,0.0,0.0,-0.03816222898852136,0.0,0.0,0.0,0.0,0.0,0.0,0.0,0.0,0.09066066819261942,2.2665167048154853,0.013493211669579858,0.0008995474446386573,2.2800099164850653,-0.0,-0.0,0.0,0.0,0.0,0.0,-0.0,0.0,-0.0,0.0,0,0,0,0.0,0.0,0.0,0.0,0.0,0.0,0.0,0.0,38280.00991648507,38280.00991648507,38280.00991648507,38280.00991648507,38280.00991648507,8704.948706775724,8704.948706775724,8704.948706775724,8704.948706775724
8,0.016,0.0,0.0,4.2514962962962963e-05,0.0,0.0,0.0,0.018078701626296764,0.0,0.0,-0.16996600350010882,0.0,0.0,0.0,0.0,-0.0,0.0,0.0,0.0,-0.03816222898852136,0.0,0.0,0.0,0.0,0.0,0.0,0.0,0.0,0.09066066819261942,2.2665167048154853,0.013493211669579858,0.0008995474446386573,2.2800099164850653,-0.0,-0.0,0.0,0.0,0.0,0.0,-0.0,0.0,-0.0,0.0,0,0,0,0.0,0.0,0.0,0.0,0.0,0.0,0.0,0.0,38280.00991648507,38280.00991648507,38280.00991648507,38280.00991648507,38280.00991648507,9421.478569254454,9421.478569254454,9421.478569254454,9421.478569254454
9,0.018,0.0,0.0,5.378399999999999e-05,0.0,0.0,0.0,0.01772186023216667,0.0,0.0,-0.18123882712825992,0.0,0.0,0.0,0.0,-0.0,0.0,0.0,0.0,-0.03816222898852136,0.0,0.0,0.0,0.0,0.0,0.0,0.0,0.0,0.09066066819261942,2.2665167048154853,0.013493211669579858,0.0008995474446386573,2.2800099164850653,-0.0,-0.0,0.0,0.0,0.0,0.0,-0.0,0.0,-0.0,0.0,0,0,0,0.0,0.0,0.0,0.0,0.0,0.0,0.0,0.0,38280.00991648507,38280.00991648507,38280.00991648507,38280.00991648507,38280.00991648507,10072.869353326027,10072.869353326027,10072.869353326027,10072.869353326027
10,0.02,0.0,0.0,6.637037037037039e-05,0.0,0.0,0.0,0.017344258416156378,0.0,0.0,-0.19132150970652026,0.0,0.0,0.0,0.0,-0.0,0.0,0.0,0.0,-0.03483659505045935,0.0,0.0,0.0,0.0,0.0,0.0,0.0,0.0,0.1564849146560609,3.9121228664015226,0.036965948867989,0.0024643965911992664,3.9490888152695116,-0.0,-0.0,0.0,0.0,0.0,0.0,-0.0,0.0,-0.0,0.0,0,0,0,0.0,0.0,0.0,0.0,0.0,0.0,0.0,0.0,39949.08881526951,39949.08881526951,39949.08881526951,39949.08881526951,39949.08881526951,10697.565428516813,10697.565428516813,10697.565428516813,10697.565428516813
11,0.022,0.0,0.0,8.027229629629629e-05,0.0,0.0,0.0,0.016948315161923324,0.0,0.0,-0.20018825092526718,0.0,0.0,0.0,0.0,-0.0,0.0,0.0,0.0,-0.03483659505045935,0.0,0.0,0.0,0.0,0.0,0.0,0.0,0.0,0.1564849146560609,3.9121228664015226,0.036965948867989,0.0024643965911992664,3.9490888152695116,-0.0,-0.0,0.0,0.0,0.0,0.0,-0.0,0.0,-0.0,0.0,0,0,0,0.0,0.0,0.0,0.0,0.0,0.0,0.0,0.0,39949.08881526951,39949.08881526951,39949.08881526951,39949.08881526951,39949.08881526951,11265.470951417528,11265.470951417528,11265.470951417528,11265.470951417528
12,0.024,0.0,0.0,9.5488e-05,0.0,0.0,0.0,0.01653639162972364,0.0,0.0,-0.2078861990916395,0.0,0.0,0.0,0.0,-0.0,0.0,0.0,0.0,-0.03483659505045935,0.0,0.0,0.0,0.0,0.0,0.0,0.0,0.0,0.1564849146560609,3.9121228664015226,0.036965948867989,0.0024643965911992664,3.9490888152695116,-0.0,-0.0,0.0,0.0,0.0,0.0,-0.0,0.0,-0.0,0.0,0,0,0,0.0,0.0,0.0,0.0,0.0,0.0,0.0,0.0,39949.08881526951,39949.08881526951,39949.08881526951,39949.08881526951,39949.08881526951,11781.748699509088,11781.748699509088,11781.748699509088,11781.748699509088
13,0.026,0.0,0.0,0.0001120157037037037,0.0,0.0,0.0,0.016110744588219605,0.0,0.0,-0.21446923235873983,0.0,0.0,0.0,0.0,-0.0,0.0,0.0,0.0,-0.03483659505045935,0.0,0.0,0.0,0.0,0.0,0.0,0.0,0.0,0.1564849146560609,3.9121228664015226,0.036965948867989,0.0024643965911992664,3.9490888152695116,-0.0,-0.0,0.0,0.0,0.0,0.0,-0.0,0.0,-0.0,0.0,0,0,0,0.0,0.0,0.0,0.0,0.0,0.0,0.0,0.0,39949.08881526951,39949.08881526951,39949.08881526951,39949.08881526951,39949.08881526951,12251.09210686505,12251.09210686505,12251.09210686505,12251.09210686505
14,0.028,0.0,0.0,0.00012985362962962963,0.0,0.0,0.0,0.015673516740127836,0.0,0.0,-0.21999543519426545,0.0,0.0,0.0,0.0,-0.0,0.0,0.0,0.0,-0.03483659505045935,0.0,0.0,0.0,0.0,0.0,0.0,0.0,0.0,0.1564849146560609,3.9121228664015226,0.036965948867989,0.0024643965911992664,3.9490888152695116,-0.0,-0.0,0.0,0.0,0.0,0.0,-0.0,0.0,-0.0,0.0,0,0,0,0.0,0.0,0.0,0.0,0.0,0.0,0.0,0.0,39949.08881526951,39949.08881526951,39949.08881526951,39949.08881526951,39949.08881526951,12677.767931734106,12677.767931734106,12677.767931734106,12677.767931734106
15,0.03,0.0,0.0,0.00014900000000000002,0.0,0.0,0.0,0.015226731253264394,0.0,0.0,-0.22452513595636986,0.0,0.0,0.0,0.0,-0.0,0.0,0.0,0.0,-0.03051167012168244,0.0,0.0,0.0,0.0,0.0,0.0,0.0,0.0,0.19401346583468743,4.850336645867186,0.06606796874319211,0.00440453124954614,4.916404614610378,-0.0,-0.0,0.0,0.0,0.0,0.0,-0.0,0.0,-0.0,0.0,0,0,0,0.0,0.0,0.0,0.0,0.0,0.0,0.0,0.0,40916.40461461038,40916.40461461038,40916.40461461038,40916.40461461038,40916.40461461038,13084.193039208709,13084.193039208709,13084.193039208709,13084.193039208709
16,0.032,0.0,0.0,0.00016945303703703706,0.0,0.0,0.0,0.014772357618937606,0.0,0.0,-0.22807400990611307,0.0,0.0,0.0,0.0,-0.0,0.0,0.0,0.0,-0.03051167012168244,0.0,0.0,0.0,0.0,0.0,0.0,0.0,0.0,0.19401346583468743,4.850336645867186,0.06606796874319211,0.00440453124954614,4.916404614610378,-0.0,-0.0,0.0,0.0,0.0,0.0,-0.0,0.0,-0.0,0.0,0,0,0,0.0,0.0,0.0,0.0,0.0,0.0,0.0,0.0,40916.40461461038,40916.40461461038,40916.40461461038,40916.40461461038,40916.40461461038,13453.670409640165,13453.670409640165,13453.670409640165,13453.670409640165
17,0.034,0.0,0.0,0.00019121096296296296,0.0,0.0,0.0,0.01431226390646147,0.0,0.0,-0.23070444612288019,0.0,0.0,0.0,0.0,-0.0,0.0,0.0,0.0,-0.03051167012168244,0.0,0.0,0.0,0.0,0.0,0.0,0.0,0.0,0.19401346583468743,4.850336645867186,0.06606796874319211,0.00440453124954614,4.916404614610378,-0.0,-0.0,0.0,0.0,0.0,0.0,-0.0,0.0,-0.0,0.0,0,0,0,0.0,0.0,0.0,0.0,0.0,0.0,0.0,0.0,40916.40461461038,40916.40461461038,40916.40461461038,40916.40461461038,40916.40461461038,13789.558928214215,13789.558928214215,13789.558928214215,13789.558928214215
18,0.036,0.0,0.0,0.00021427199999999997,0.0,0.0,0.0,0.013848194920491209,0.0,0.0,-0.23247782465068537,0.0,0.0,0.0,0.0,-0.0,0.0,0.0,0.0,-0.03051167012168244,0.0,0.0,0.0,0.0,0.0,0.0,0.0,0.0,0.19401346583468743,4.850336645867186,0.06606796874319211,0.00440453124954614,4.916404614610378,-0.0,-0.0,0.0,0.0,0.0,0.0,-0.0,0.0,-0.0,0.0,0,0,0,0.0,0.0,0.0,0.0,0.0,0.0,0.0,0.0,40916.40461461038,40916.40461461038,40916.40461461038,40916.40461461038,40916.40461461038,14094.912126917898,14094.912126917898,14094.912126917898,14094.912126917898
19,0.038,0.0,0.0,0.00023863437037037038,0.0,2.5216113790591523e-05,-1.0448948498533884e-05,0.013443543632005055,0.02521611379059152,-0.010448948498533884,-0.17168546243397892,0.04439125847305907,-0.10706128927417473,3.4205431740848823e-05,44.39121359916735,-107.0612971693858,-0.0072687112201672375,0.0,0.0,-0.03051167012168244,0.0,0.0,0.0,0.0,0.0,0.0,0.0,0.0,0.19401346583468743,4.850336645867186,0.06606796874319211,0.00440453124954614,4.916404614610378,-0.0,-0.0,0.0,-0.26661389838919275,0.6430101033806934,-0.006191251555957118,-0.04439125847305907,-8.878251694611813e-05,0.10706128927417473,0.00021412257854834947,-32767,32767,0,-44.657827497556546,-11164.456874389136,-44.657827497556546,-0.0893156549951131,107.70430727276648,26926.07681819162,107.70430727276648,0.21540861454553298,40916.40461461038,65535,32768.0,1.0,32768.0,14786.524094948183,14208.665903183997,12821.263442565694,14208.665903183997
20,0.04,0.0,0.0,0.0002642962962962964,0.0,2.126900379980286e-05,-8.262899910217215e-06,0.013451204631516219,-0.0019746622244829607,0.0012035909282741518,0.003916259590880894,0.03520822606101806,-0.09028167373330084,8.684860752364479e-05,-5.0326030903502765,8.462819905998343,0.08330657172751409,-4.253798254984612e-05,1.6525864299278602e-05,-0.026795958827269595,0.0019321224175347556,0.04830306043836889,1.9321224175347556e-05,1.9321224175347556e-05,-0.0011870680571549428,-0.02967670142887357,-1.1870680571549428e-05,-1.1870680571549428e-05,-0.03071221841815049,-0.7678054604537622,0.06146113598046953,0.004097409065364635,-0.7063443244732927,0.02968857210944512,-0.04832238166254424,0.0,-0.03341738918398544,0.25264987591260923,-0.00973388951520969,-0.005519653951572941,-9.982182484926401e-05,0.041959292070756604,0.0002980411626898627,32767,-32767,11,4.999185701166291,1249.7964252915729,-39.658641796390256,-0.07931728359278051,-8.210170030085733,-2052.542507521433,99.49413724268076,0.19898827448536152,35293.65567552671,1.0,32746.0,65535,32746.0,13450.0015953205,14311.610019459113,13628.661654627998,14311.610019459113
21,0.042,0.0,0.0,0.00029125600000000005,0.0,1.7816993134950468e-05,-5.666367431394591e-06,0.013457887361875264,-0.0016362202877620224,0.0013297148167945578,0.0031628395749794948,0.02695019653789126,-0.07554042530976912,0.0023530955037772824,-3.8178049796879736,6.986035894760087,1.4843407123623336,-4.253798254984612e-05,1.6525864299278602e-05,-0.026795958827269595,0.0019321224175347556,0.04830306043836889,1.9321224175347556e-05,1.9321224175347556e-05,-0.0011870680571549428,-0.02967670142887357,-1.1870680571549428e-05,-1.1870680571549428e-05,-0.03071221841815049,-0.7678054604537622,0.06146113598046953,0.004097409065364635,-0.7063443244732927,0.02968857210944512,-0.04832238166254424,0.0,0.016147218208204698,0.16436569363330222,-0.41071672816613636,0.002738375571553861,-9.434507370615628e-05,0.027218043647224882,0.00035247724998431246,-595,233,227,3.833952197896178,958.4880494740445,-35.824689598494075,-0.07164937919698815,-6.821670201126785,-1705.417550281696,92.67246704155397,0.18534493408310795,35293.65567552671,35934.65567552671,35247.65567552671,35106.65567552671,34885.65567552671,13688.239975203738,14457.487569748382,13833.72846136307,14450.038257963815
22,0.044,0.0,0.0,0.0003195117037037037,0.0,1.4878661702994165e-05,-2.8686888917916414e-06,0.01346344494697635,-0.0014149585359335113,0.0014227892271220393,0.0026494905296446784,0.020607009647390293,-0.06314296690779167,0.007358958741329734,-2.9604146091312518,5.936349277106199,2.845502494915791,-4.253798254984612e-05,1.6525864299278602e-05,-0.026795958827269595,0.0019321224175347556,0.04830306043836889,1.9321224175347556e-05,1.9321224175347556e-05,-0.0011870680571549428,-0.02967670142887357,-1.1870680571549428e-05,-1.1870680571549428e-05,-0.03071221841815049,-0.7678054604537622,0.06146113598046953,0.004097409065364635,-0.7063443244732927,0.02968857210944512,-0.04832238166254424,0.0,0.054260828925982815,0.09006986673290901,-0.9201994852362262,0.009081562462054826,-7.618194878204663e-05,0.01482058524524743,0.00038211842047480735,-350,-62,452,3.0146754380572345,753.6688595143086,-32.810014160436836,-0.06562002832087367,-5.84627941037329,-1461.5698525933226,86.82618763118069,0.17365237526236138,35293.65567552671,35889.65567552671,35047.65567552671,35601.65567552671,34635.65567552671,13903.905269958974,14585.992637331929,14030.297571422792,14570.714973392747
23,0.046,0.0,0.0,0.00034906162962962964,0.0,1.220416745988594e-05,4.700322622358937e-08,0.01346826014693946,-0.0013111577076085452,0.0014707940728074778,0.0023290598170693146,0.015436780110067244,-0.05220580117590409,0.015040953430445326,-2.4614762414375346,5.306956455238335,4.173124917332354,-4.253798254984612e-05,1.6525864299278602e-05,-0.026795958827269595,0.0019321224175347556,0.04830306043836889,1.9321224175347556e-05,1.9321224175347556e-05,-0.0011870680571549428,-0.02967670142887357,-1.1870680571549428e-05,-1.1870680571549428e-05,-0.03071221841815049,-0.7678054604537622,0.06146113598046953,0.004097409065364635,-0.7063443244732927,0.02968857210944512,-0.04832238166254424,0.0,0.08536771690191738,0.024470172858663704,-1.43464453930133,0.014251791999377875,-4.767836478329088e-05,0.0038834195133598537,0.00038988525950152706,-17,-452,673,2.546843958339452,636.710989584863,-30.26317020209738,-0.060526340404194766,-5.282486282379671,-1320.6215705949178,81.54370134880101,0.16308740269760202,35293.65567552671,35749.15567552671,34855.15567552671,36184.15567552671,34386.15567552671,14097.103939771305,14698.847604498253,14220.84485675711,14675.245648908098
24,0.048,0.0,0.0,0.00037990400000000003,0.0,9.611722829208027e-06,2.9807243972139372e-06,0.013472747011184253,-0.0012917576382426895,0.001465519950825498,0.0022143471643352778,0.010833518224260374,-0.04205154438831817,0.02529756807431035,-2.254724084566789,4.999924224239479,5.4486285687594584,-4.253798254984612e-05,1.6525864299278602e-05,-0.026795958827269595,0.0019321224175347556,0.04830306043836889,1.9321224175347556e-05,1.9321224175347556e-05,-0.0011870680571549428,-0.02967670142887357,-1.1870680571549428e-05,-1.1870680571549428e-05,-0.03071221841815049,-0.7678054604537622,0.06146113598046953,0.004097409065364635,-0.7063443244732927,0.02968857210944512,-0.04832238166254424,0.0,0.11310041854006972,-0.03649299289049718,-1.9467933143818192,0.018855053885184745,-9.968257012921393e-06,-0.006270837274226067,0.00037734358495307495,305,-798,888,2.367824503106859,591.9561257767148,-27.895345698990525,-0.05579069139798105,-5.0364172171299755,-1259.1043042824938,76.50728413167103,0.15301456826334206,35293.65567552671,35630.15567552671,34652.15567552671,36733.15567552671,34159.15567552671,14270.311761803807,14797.246893120526,14405.14937192067,14765.548491458117
25,0.05,0.0,0.0,0.000412037037037037,0.0,7.05195370090329e-06,5.905186504232071e-06,0.013477554212789924,-0.0012762157710203912,0.0014612648772017948,0.0024666839106105213,0.006651744307280963,-0.032571849283989415,0.037817133476081864,-2.0416855762313686,4.651895843060837,6.531120516691036,-1.4111699570846218e-05,-1.1801061385314945e-05,-0.02661850409421429,0.001261139309770737,0.03152848274426842,3.193261727305493e-05,3.193261727305493e-05,-0.0014739079653831113,-0.036847699134577784,-2.660976022538054e-05,-2.660976022538054e-05,-0.029085188004824812,-0.7271297001206203,0.057098357779745805,0.003806557185316387,-0.6700313423408745,0.036874308894803164,-0.03156041536154148,0.0,0.18148681814161957,0.007206702893081532,-2.4180027236930366,0.0302225645875222,5.047687216212301e-05,0.0010114339224479366,0.00037936645279797084,263,-654,1074,2.223172394372988,555.793098593247,-25.672173304617537,-0.05134434660923507,-4.644689140167755,-1161.1722850419387,71.86259499150327,0.14372518998300654,35329.96865765913,35945.46865765913,34451.46865765913,36862.46865765913,34060.46865765913,14434.196280924853,14882.540367497582,14575.296604905936,14845.582902009895
26,0.052,0.0,0.0,0.0004454589629629629,0.0,4.518536729583875e-06,8.823316790652247e-06,0.013483376449571056,-0.0012638127923274916,0.0014584516758258028,0.0030592594280809504,0.002902057392141789,-0.02383105899225648,0.05220452706757302,-1.823931282439623,4.27577389698057,7.415032373189152,-1.4111699570846218e-05,-1.1801061385314945e-05,-0.02661850409421429,0.001261139309770737,0.03152848274426842,3.193261727305493e-05,3.193261727305493e-05,-0.0014739079653831113,-0.036847699134577784,-2.660976022538054e-05,-2.660976022538054e-05,-0.029085188004824812,-0.7271297001206203,0.057098357779745805,0.003806557185316387,-0.6700313423408745,0.036874308894803164,-0.03156041536154148,0.0,0.20418877314147058,-0.045284414995531784,-2.831301427497056,0.03397225150266137,0.00011842137516744576,-0.007729356369284998,0.00036390774005940087,211,-542,1230,2.0281200555810934,507.0300138952734,-23.644053249036443,-0.047288106498072885,-4.321058311976102,-1080.2645779940253,67.54153667952717,0.13508307335905434,35329.96865765913,36183.46865765913,34265.46865765913,36936.46865765913,33934.46865765913,14588.011584164406,14956.213107094489,14731.46038993232,14915.708154566953
27,0.054,0.0,0.0,0.00048016799999999995,0.0,2.0053881281521928e-06,1.1737846861673972e-05,0.01349085165422163,-0.0012544166555964722,0.0014569780671829459,0.003963710677424411,-0.0004136092395892855,-0.015867659104479574,0.06806109294930367,-1.6061149270844295,3.8834558314571095,8.099474913015074,-1.4111699570846218e-05,-1.1801061385314945e-05,-0.02661850409421429,0.001261139309770737,0.03152848274426842,3.193261727305493e-05,3.193261727305493e-05,-0.0014739079653831113,-0.036847699134577784,-2.660976022538054e-05,-2.660976022538054e-05,-0.029085188004824812,-0.7271297001206203,0.057098357779745805,0.003806557185316387,-0.6700313423408745,0.036874308894803164,-0.03156041536154148,0.0,0.22430650044066341,-0.09315897085973561,-3.183682095765249,0.03728791813439245,0.00019299721143623065,-0.015692756257061905,0.0003325222275452771,163,-440,1355,1.830421427525093,457.6053568812732,-21.813631821511347,-0.0436272636430227,-3.976614802316845,-994.1537005792113,63.56492187721033,0.12712984375442066,35329.96865765913,36383.46865765913,34113.46865765913,36986.46865765913,33836.46865765913,14731.889710063644,15020.020574251992,14874.429654145464,14977.406878359177
28,0.056,0.0,0.0,0.0005161623703703705,0.0,-4.932479079492097e-07,1.4651281527908693e-05,0.013500564295025193,-0.0012478534801961356,0.001456727285535847,0.005153849047961066,-0.003301464680197859,-0.008698742482477553,0.08499162197933595,-1.3922744844410082,3.4851668161782445,8.587034628330679,-1.4111699570846218e-05,-1.1801061385314945e-05,-0.02661850409421429,0.001261139309770737,0.03152848274426842,3.193261727305493e-05,3.193261727305493e-05,-0.0014739079653831113,-0.036847699134577784,-2.660976022538054e-05,-2.660976022538054e-05,-0.029085188004824812,-0.7271297001206203,0.057098357779745805,0.003806557185316387,-0.6700313423408745,0.036874308894803164,-0.03156041536154148,0.0,0.24187468772576484,-0.1363096406290221,-3.4733788041421874,0.040175773575001024,0.0002733487585862327,-0.022861672879063925,0.0002867988817871492,121,-347,1449,1.6341491721667731,408.53729304169326,-20.17948264934458,-0.04035896529868915,-3.6214764568072666,-905.3691142018166,59.943445420403066,0.11988689084080613,35329.96865765913,36544.96865765913,33993.96865765913,37012.96865765913,33767.96865765913,14865.947068513076,15075.531968672669,15004.932596940012,15032.06090202841
29,0.058,0.0,0.0,0.0005534402962962964,0.0,-2.9827315395745895e-06,1.7565877211026252e-05,0.013513049533891394,-0.001243918158719002,0.0014575729692743642,0.006605533144810684,-0.0057744347129866196,-0.0023231190450265834,0.10261091029602748,-1.185677815246764,3.0896306548663026,8.88350771331506,-1.4111699570846218e-05,-1.1801061385314945e-05,-0.02661850409421429,0.001261139309770737,0.03152848274426842,3.193261727305493e-05,3.193261727305493e-05,-0.0014739079653831113,-0.036847699134577784,-2.660976022538054e-05,-2.660976022538054e-05,-0.029085188004824812,-0.7271297001206203,0.057098357779745805,0.003806557185316387,-0.6700313423408745,0.036874308894803164,-0.03156041536154148,0.0,0.2569684003841441,-0.174738805031627,-3.6998326310282974,0.04264874360778978,0.0003586462458018123,-0.029237296316514894,0.00022832428915411942,83,-264,1512,1.4426462156309081,360.661553907727,-18.73683643371367,-0.03747367286742734,-3.26436945989793,-816.0923649744825,56.67907596050514,0.11335815192101027,35329.96865765913,36668.46865765913,33908.46865765913,37015.46865765913,33727.46865765913,14990.304762249107,15124.208772596317,15123.621709468265,15080.896833572708
30,0.06,0.0,0.0,0.0005920000000000001,0.0,-5.467979509204643e-06,2.0483629372090865e-05,0.013528797126009939,-0.001242384074955839,0.001459383531007263,0.008296538938199961,-0.007850995279753513,0.003275633277677636,0.12054979640385059,-0.9890439462506814,2.7040524496980547,8.997642992737616,1.0849740138532369e-05,-4.099017720858719e-05,-0.026425747980358443,0.0012501605378715884,0.03125401344678971,4.4434222651770815e-05,4.4434222651770815e-05,-0.001502984440843489,-0.03757461102108722,-4.163960463381543e-05,-4.163960463381543e-05,-0.0347222869185584,-0.86805717296396,0.051890014741962046,0.003459334316130803,-0.8161671582219979,0.03761625062572104,-0.031298447669441475,0.0,0.2741522176456856,-0.20696695730093503,-3.863636660716071,0.04546724590547455,0.0004495807376127614,-0.03457408094711911,0.0001591761272598812,52,-192,1546,1.263196163896367,315.7990409740917,-17.473640269817302,-0.034947280539634605,-2.9110194069989896,-727.7548517497474,53.76805655350614,0.10753611310701229,35183.832841778,36607.832841778,33707.832841778,36851.832841778,33567.832841778,15102.136491832533,15164.255552518309,15228.2397924311,15121.939571143925
31,0.062,0.0,0.0,0.0006318397037037037,0.0,-7.953434947064662e-06,2.3406266216229328e-05,0.013548242280772761,-0.00124301150608896,0.001462024870198217,0.010197910616985136,-0.00955379552059416,0.008126170467862133,0.13845990048344287,-0.8043285349768895,2.3341589782591523,8.940363951674621,1.0849740138532369e-05,-4.099017720858719e-05,-0.026425747980358443,0.0012501605378715884,0.03125401344678971,4.4434222651770815e-05,4.4434222651770815e-05,-0.001502984440843489,-0.03757461102108722,-4.163960463381543e-05,-4.163960463381543e-05,-0.0347222869185584,-0.86805717296396,0.051890014741962046,0.003459334316130803,-0.8161671582219979,0.03761625062572104,-0.031298447669441475,0.0,0.2846520393676074,-0.2363067281508658,-3.9663373500541947,0.0471700461463152,0.0005439208299053918,-0.03942461813730361,8.032689098527398e-05,24,-129,1552,1.088980574344497,272.24514358612424,-16.384659695472806,-0.032769319390945614,-2.570465706410018,-642.6164266025045,51.19759084709613,0.10239518169419226,35183.832841778,36659.332841778,33684.332841778,36812.332841778,33579.332841778,15204.838562327586,15200.168392963693,15322.554023538345,15159.493004214912
32,0.064,0.0,0.0,0.0006729576296296296,0.0,-1.0443051088619437e-05,2.6335251101887904e-05,0.013571778611879148,-0.0012455543140723329,0.0014653653394451718,0.012291569581868056,-0.010908689509080739,0.01226669569077365,0.1560185884694054,-0.6330692561298908,1.984391502102394,8.725179030034441,1.0849740138532369e-05,-4.099017720858719e-05,-0.026425747980358443,0.0012501605378715884,0.03125401344678971,4.4434222651770815e-05,4.4434222651770815e-05,-0.001502984440843489,-0.03757461102108722,-4.163960463381543e-05,-4.163960463381543e-05,-0.0347222869185584,-0.86805717296396,0.051890014741962046,0.003459334316130803,-0.8161671582219979,0.03761625062572104,-0.031298447669441475,0.0,0.29307255293933565,-0.2614112703484962,-4.010503698761702,0.04852494013480178,0.0006409707101749955,-0.04356514336021512,-6.803395735156269e-06,2,-75,1532,0.9261418090692265,231.53545226730662,-15.45851788640358,-0.03091703577280716,-2.24580277245089,-561.4506931127225,48.951788074645236,0.09790357614929047,35183.832841778,36677.332841778,33688.332841778,36754.332841778,33615.332841778,15298.56630747257,15232.90041177479,15407.128885198552,15194.38932768812
33,0.066,0.0,0.0,0.0007153520000000002,0.0,-1.2940290626789952e-05,2.9271790755057633e-05,0.013599765801733669,-0.0012497678928354156,0.0014692778819600182,0.01456092115826203,-0.011943601978641229,0.015742554969352805,0.17293289920428145,-0.4761627039362954,1.6580279154208943,8.367354355677913,1.0849740138532369e-05,-4.099017720858719e-05,-0.026425747980358443,0.0012501605378715884,0.03125401344678971,4.4434222651770815e-05,4.4434222651770815e-05,-0.001502984440843489,-0.03757461102108722,-4.163960463381543e-05,-4.163960463381543e-05,-0.0347222869185584,-0.86805717296396,0.051890014741962046,0.003459334316130803,-0.8161671582219979,0.03761625062572104,-0.031298447669441475,0.0,0.29957938687232477,-0.28254867203580386,-3.9995694100292365,0.04955985260436227,0.00074009041538372,-0.04704100263879428,-0.00010088540101274483,-16,-30,1488,0.7757420908086201,193.93552270215503,-14.68277579559496,-0.02936555159118992,-1.9405765874566983,-485.14414686417456,47.01121148718854,0.09402242297437707,35183.832841778,36664.832841778,33718.832841778,36678.832841778,33672.832841778,15383.521811756806,15263.296991708125,15482.496782521843,15227.321257874972
34,0.068,0.0,0.0,0.0007590210370370371,0.0,-1.5448136605566365e-05,3.221684753892189e-05,0.013632532396938042,-0.001255414310741516,0.0014736420448484015,0.016990739692281008,-0.012687611226896416,0.018604012303463435,0.188942493750063,-0.33408721265362473,1.3572594717844582,7.883538091363398,1.0849740138532369e-05,-4.099017720858719e-05,-0.026425747980358443,0.0012501605378715884,0.03125401344678971,4.4434222651770815e-05,4.4434222651770815e-05,-0.001502984440843489,-0.03757461102108722,-4.163960463381543e-05,-4.163960463381543e-05,-0.0347222869185584,-0.86805717296396,0.051890014741962046,0.003459334316130803,-0.8161671582219979,0.03761625062572104,-0.031298447669441475,0.0,0.3043452655329716,-0.3000168308003051,-3.9376795291998854,0.050303861852617454,0.000840698139088955,-0.049902459972904906,-0.00020069032095855466,-32,6,1423,0.6384324781865963,159.60811954664908,-14.044343317408364,-0.02808868663481673,-1.6572763025847632,-414.3190756461908,45.35393518460378,0.09070787036920755,35183.832841778,36625.832841778,33773.832841778,36587.832841778,33747.832841778,15459.969017991158,15292.083972358085,15549.180921620376,15258.833479128662
35,0.07,0.0,0.0,0.000803962962962963,0.0,-1.7969111979215712e-05,3.5171154900886984e-05,0.013670378383538056,-0.0012622663753148588,0.0014783454396552547,0.01956706002208939,-0.013170448605671707,0.02090418093278844,0.20382173714039054,-0.20711048186119269,1.0832670755104314,7.291307517681555,3.568776414334407e-05,-7.046970966297623e-05,-0.026349316646591625,0.001292687156161203,0.032317178904030075,5.7361094213382845e-05,5.7361094213382845e-05,-0.001553296122182909,-0.03883240305457272,-5.717256585564453e-05,-5.717256585564453e-05,-0.045916376668681015,-1.1479094167170254,0.04500255824165989,0.003000170549443993,-1.1029068584753654,0.038889575620428364,-0.03237453999824346,0.0,0.31519459991922394,-0.32059406887465325,-3.8295511808116793,0.05206002422610007,0.0009448181875411551,-0.053278720931031906,-0.0003072477628206185,-41,35,1339,0.5223050817804167,130.57627044510417,-13.522038235627948,-0.027044076471255896,-1.4038611443850848,-350.9652860962712,43.95007404021869,0.08790014808043738,34897.09314152464,36274.09314152464,33561.09314152464,36198.09314152464,33555.09314152464,15522.366983878263,15313.786119021106,15601.930218782603,15283.432184370802
36,0.072,0.0,0.0,0.0008501759999999999,0.0,-2.0505296703834608e-05,3.8135229356650324e-05,0.013713551959889011,-0.0012701045824323038,0.0014832809502861458,0.02226001218497011,-0.013421500451439857,0.02269755359437091,0.21738060182025173,-0.09489298856593659,0.8365929475849807,6.608534448115605,3.568776414334407e-05,-7.046970966297623e-05,-0.026349316646591625,0.001292687156161203,0.032317178904030075,5.7361094213382845e-05,5.7361094213382845e-05,-0.001553296122182909,-0.03883240305457272,-5.717256585564453e-05,-5.717256585564453e-05,-0.045916376668681015,-1.1479094167170254,0.04500255824165989,0.003000170549443993,-1.1029068584753654,0.038889575620428364,-0.03237453999824346,0.0,0.31701477745026396,-0.33168473740570376,-3.680272855762878,0.05231107607186822,0.0010494403396848916,-0.05507209359261437,-0.00041739195000584724,-50,59,1239,0.41190776601620055,102.97694150405013,-13.110130469611747,-0.026220260939223493,-1.1682776849906844,-292.06942124767113,42.781796355228,0.08556359271045601,34897.09314152464,36190.59314152464,33653.59314152464,36081.59314152464,33662.59314152464,15577.401998995036,15335.45970942362,15647.522634569312,15308.054262227504
37,0.074,0.0,0.0,0.0008976583703703704,0.0,-2.305836360345345e-05,4.110939386226934e-05,0.013762270990554326,-0.0012787308613809048,0.0014883552712825201,0.025059330172963655,-0.013469460289899931,0.024038723921351125,0.229465821117968,0.0029425740766927115,0.6171423301204368,5.85376334029191,3.568776414334407e-05,-7.046970966297623e-05,-0.026349316646591625,0.001292687156161203,0.032317178904030075,5.7361094213382845e-05,5.7361094213382845e-05,-0.001553296122182909,-0.03883240305457272,-5.717256585564453e-05,-5.717256585564453e-05,-0.045916376668681015,-1.1479094167170254,0.04500255824165989,0.003000170549443993,-1.1029068584753654,0.038889575620428364,-0.03237453999824346,0.0,0.3176166906964864,-0.3400702389511026,-3.4953551613160507,0.0523590359103283,0.0011541584115055481,-0.056413263919594586,-0.0005302184778450364,-56,76,1127,0.31467411661979366,78.66852915494842,-12.795456352991954,-0.025590912705983907,-0.9572125690715394,-239.30314226788485,41.82458378615647,0.08364916757231293,34897.09314152464,36090.09314152464,33760.09314152464,35958.09314152464,33780.09314152464,15625.396679362668,15357.398315602848,15686.462735767696,15332.903661837472
38,0.076,0.0,0.0,0.0009464082962962963,0.0,-2.5629616061324616e-05,4.409380006806423e-05,0.013816734101000977,-0.001287964985706764,0.0014934852973877725,0.027955609918658253,-0.013341940893495012,0.024981091106809555,0.23996082650164935,0.08702418965542438,0.42417002830510453,5.045274298012614,3.568776414334407e-05,-7.046970966297623e-05,-0.026349316646591625,0.001292687156161203,0.032317178904030075,5.7361094213382845e-05,5.7361094213382845e-05,-0.001553296122182909,-0.03883240305457272,-5.717256585564453e-05,-5.717256585564453e-05,-0.045916376668681015,-1.1479094167170254,0.04500255824165989,0.003000170549443993,-1.1029068584753654,0.038889575620428364,-0.03237453999824346,0.0,0.3171649634171404,-0.3460685758504835,-3.2805176803150276,0.052231516513923375,0.0012586214445333948,-0.05735563110505301,-0.0006449297400551424,-60,89,1004,0.23014077376171602,57.535193440429005,-12.565315579230237,-0.025130631158460474,-0.770238604155588,-192.559651038897,41.05434518200088,0.08210869036400176,34897.09314152464,35975.59314152464,33878.59314152464,35826.59314152464,33907.59314152464,15666.703813388442,15379.82557463527,15719.188107682201,15358.164717392463
39,0.078,0.0,0.0,0.0009964239999999999,0.0,-2.8220024683288753e-05,4.708844872937548e-05,0.01387712229765038,-0.0012976451732332383,0.0014985981103599404,0.030940240075698212,-0.013065139877777677,0.02557605756387532,0.2487850680525472,0.1581208372033585,0.25661218711362604,4.200983922728915,3.568776414334407e-05,-7.046970966297623e-05,-0.026349316646591625,0.001292687156161203,0.032317178904030075,5.7361094213382845e-05,5.7361094213382845e-05,-0.001553296122182909,-0.03883240305457272,-5.717256585564453e-05,-5.717256585564453e-05,-0.045916376668681015,-1.1479094167170254,0.04500255824165989,0.003000170549443993,-1.1029068584753654,0.038889575620428364,-0.03237453999824346,0.0,0.3158158856158257,-0.34998607817825084,-3.0415770290194075,0.051954715498206044,0.001362530875529807,-0.05795059756211878,-0.00076083093517938,-61,98,875,0.15769504841246718,39.42376210311679,-12.40762053081777,-0.02481524106163554,-0.6065982652918769,-151.6495663229692,40.447746916709,0.080895493833418,34897.09314152464,35851.59314152464,34003.59314152464,35692.59314152464,34040.59314152464,15701.734330312991,15402.828563863439,15746.207821089818,15383.909866634249
40,0.08,0.0,0.0,0.001047703703703704,0.0,-3.083026431154438e-05,5.009320973251151e-05,0.013943600456985259,-0.00130762814162597,0.0015036307343271036,0.034005337795862366,-0.01266343207796016,0.025872434458156523,0.25589250616886744,0.21722538250688975,0.1131131977834073,3.3379255904588225,6.12124658944718e-05,-0.00010046080556325645,-0.02647275879577096,0.0013621121228590118,0.0340528030714753,7.098221544197297e-05,7.098221544197297e-05,-0.0016099166096512046,-0.040247915241280116,-7.327173195215657e-05,-7.327173195215657e-05,-0.06047809659163332,-1.511952414790833,0.035930843752914894,0.0023953895835276597,-1.476021571037918,0.040321186973232274,-0.03412378528691727,0.0,0.3223132146480512,-0.3626197885944514,-2.7842928416785893,0.052984619051192436,0.0014685001136321917,-0.0599962197450738,-0.0008808233746695276,-59,100,740,0.10508783214116144,26.27195803529036,-12.302532698676607,-0.024605065397353215,-0.47573298637785866,-118.93324659446466,39.97201393033114,0.07994402786066228,34523.97842896208,35343.47842896208,33763.47842896208,35184.47842896208,33804.47842896208,15723.202393131867,15418.713725101583,15760.370079844537,15402.374480508961
41,0.082,0.0,0.0,0.0011002456296296296,0.0,-3.346073532817273e-05,5.3107833842445956e-05,0.01401628492209037,-0.0013177786115967367,0.0015085247079705834,0.037121175253322654,-0.012159023734975094,0.025915644204465307,0.2612699389305265,0.2654840310435012,-0.008119294107556853,2.4723129278664526,6.12124658944718e-05,-0.00010046080556325645,-0.02647275879577096,0.0013621121228590118,0.0340528030714753,7.098221544197297e-05,7.098221544197297e-05,-0.0016099166096512046,-0.040247915241280116,-7.327173195215657e-05,-7.327173195215657e-05,-0.06047809659163332,-1.511952414790833,0.035930843752914894,0.0023953895835276597,-1.476021571037918,0.040321186973232274,-0.03412378528691727,0.0,0.31960164585439005,-0.36323928364925234,-2.5143290410607,0.05248021070820737,0.0015734605350486064,-0.06003942949138258,-0.0010009022336522927,-59,102,604,0.05411761481088884,13.52940370272221,-12.24841508386572,-0.024496830167731437,-0.3551199895416955,-88.77999738542387,39.616893940789446,0.0792337878815789,34523.97842896208,35208.47842896208,33898.47842896208,35047.47842896208,33941.47842896208,15739.949018140083,15435.9831103473,15770.42763447598,15422.02894392549
42,0.084,0.0,0.0,0.0011540480000000002,0.0,-3.6111610289169725e-05,5.613197692598286e-05,0.014095270275158086,-0.0013279897208772129,0.0015132361769289232,0.040283154285884214,-0.011572190587783075,0.02574753238069858,0.2649347474387889,0.30382931191796186,-0.10886020209267656,1.6191303302078062,6.12124658944718e-05,-0.00010046080556325645,-0.02647275879577096,0.0013621121228590118,0.0340528030714753,7.098221544197297e-05,7.098221544197297e-05,-0.0016099166096512046,-0.040247915241280116,-7.327173195215657e-05,-7.327173195215657e-05,-0.06047809659163332,-1.511952414790833,0.035930843752914894,0.0023953895835276597,-1.476021571037918,0.040321186973232274,-0.03412378528691727,0.0,0.316392007236604,-0.36258984061265764,-2.237138517260732,0.05189337756101535,0.001677247290170637,-0.05987131766761585,-0.0011206448689875244,-57,101,469,0.012562695318642125,3.1406738296605314,-12.235852388547077,-0.024471704777094153,-0.2537296385199811,-63.43240962999527,39.36316430226947,0.07872632860453893,34523.97842896208,35071.97842896208,34032.97842896208,34913.97842896208,34076.97842896208,15752.367247189208,15454.49481063964,15776.820310865807,15442.727993625238
43,0.086,0.0,0.0,0.0012091090370370367,0.0,-3.8782873042019004e-05,5.9165219452118824e-05,0.014180642497624912,-0.001338171180677346,0.0015177294374875273,0.04348707377479537,-0.010921204076258382,0.02540618187792388,0.2669321323478415,0.3333096073243223,-0.1910170632689445,0.7919300618006317,6.12124658944718e-05,-0.00010046080556325645,-0.02647275879577096,0.0013621121228590118,0.0340528030714753,7.098221544197297e-05,7.098221544197297e-05,-0.0016099166096512046,-0.040247915241280116,-7.327173195215657e-05,-7.327173195215657e-05,-0.06047809659163332,-1.511952414790833,0.035930843752914894,0.0023953895835276597,-1.476021571037918,0.040321186973232274,-0.03412378528691727,0.0,0.3127935425137528,-0.3608989173989985,-1.957857561118029,0.05124239104949066,0.0017797320722696185,-0.05952996716484115,-0.0012397048033172067,-54,99,336,-0.0205160648105695,-5.129016202642375,-12.256368453357647,-0.024512736906715293,-0.169881854130054,-42.4704635325135,39.19328244813941,0.07838656489627882,34523.97842896208,34936.47842896208,34165.47842896208,34783.47842896208,34210.47842896208,15760.865721655484,15474.08864169793,15779.938002635248,15464.329376150388
44,0.088,0.0,0.0,0.001265426962962963,0.0,-4.147435001363777e-05,6.220708173409834e-05,0.014272479718012222,-0.001348248024433386,0.0015219762216878497,0.0467290988142119,-0.01022225133564628,0.024925952863771077,0.2673322694417872,0.35498324271659265,-0.2564294090597401,0.0028457356042941363,6.12124658944718e-05,-0.00010046080556325645,-0.02647275879577096,0.0013621121228590118,0.0340528030714753,7.098221544197297e-05,7.098221544197297e-05,-0.0016099166096512046,-0.040247915241280116,-7.327173195215657e-05,-7.327173195215657e-05,-0.06047809659163332,-1.511952414790833,0.035930843752914894,0.0023953895835276597,-1.476021571037918,0.040321186973232274,-0.03412378528691727,0.0,0.3089030866999335,-0.35837184174298586,-1.6812746805768701,0.05054343830887856,0.0018808189488873756,-0.05904973815068835,-0.0013578042796185835,-50,95,208,-0.04608015601665916,-11.52003900416479,-12.302448609374306,-0.02460489721874861,-0.10194243268324577,-25.485608170811442,39.09134001545617,0.07818268003091233,34523.97842896208,34804.47842896208,34293.47842896208,34659.47842896208,34338.47842896208,15765.867661608016,15494.567234925818,15780.20792518608,15486.631265439575
45,0.09,0.0,0.0,0.0013230000000000002,0.0,-4.418573885479e-05,6.525703762606658e-05,0.014370852902528285,-0.0013581592763314424,0.0015259549124839898,0.050005732828863815,-0.009489410809265802,0.024337474745371464,0.2662271660872151,0.36991673502824773,-0.30696743261939186,-0.7376116379017638,8.776408695801451e-05,-0.00013092328651512054,-0.02684191035877706,0.0014388183158053573,0.03597045789513393,8.537039860002654e-05,8.537039860002654e-05,-0.001663172445605404,-0.0415793111401351,-8.99034564082106e-05,-8.99034564082106e-05,-0.07684764318764087,-1.9211910796910217,0.024403697274768765,0.001626913151651251,-1.8967873824162529,0.04166921459654331,-0.03605582829373396,0.0,0.31290116103395166,-0.3667955908917229,-1.4117594362910075,0.051158625405809115,0.001983136199698994,-0.06039330303910542,-0.0014785908856967942,-45,87,87,-0.057015573994296076,-14.253893498574019,-12.359464183368601,-0.0247189283667372,-0.05982815827233107,-14.957039568082767,39.03151185718384,0.07806302371436767,34103.21261758375,34256.21261758375,33995.21261758375,34124.21261758375,34037.21261758375,15759.045220891861,15506.964022719749,15769.330913131285,15500.627030295274
46,0.092,0.0,0.0,0.0013818263703703703,0.0,-4.69166178869995e-05,6.831452015820676e-05,0.014475788044252333,-0.001367845614013607,0.0015296454590903743,0.05328815944468512,-0.008734677158375061,0.023667419489472645,0.2637277889517897,0.379153057710079,-0.3446445859106238,-1.4203050026429949,8.776408695801451e-05,-0.00013092328651512054,-0.02684191035877706,0.0014388183158053573,0.03597045789513393,8.537039860002654e-05,8.537039860002654e-05,-0.001663172445605404,-0.0415793111401351,-8.99034564082106e-05,-8.99034564082106e-05,-0.07684764318764087,-1.9211910796910217,0.024403697274768765,0.001626913151651251,-1.8967873824162529,0.04166921459654331,-0.03605582829373396,0.0,0.30867518247913667,-0.36313359884302926,-1.1532927174070362,0.05040389175491837,0.0020839439832088308,-0.059723247783206604,-0.0015980373812632075,-41,81,-25,-0.07047787523094234,-17.619468807735586,-12.429942058599543,-0.024859884117199086,-0.018489012932405458,-4.622253233101365,39.013022844251424,0.07802604568850285,34103.21261758375,34139.21261758375,34108.21261758375,34017.21261758375,34148.21261758375,15750.404962204526,15520.593560395291,15757.208908392438,15515.667024093056
47,0.094,0.0,0.0,0.001441904296296296,0.0,-4.966648254678091e-05,7.137893789920216e-05,0.01458729585407543,-0.0013772714053637575,0.0015330381411850374,0.05657579579049213,-0.007968184057839856,0.022938849372405097,0.25996020354475,0.3835903926494588,-0.3711967232818394,-2.0382132492442713,8.776408695801451e-05,-0.00013092328651512054,-0.02684191035877706,0.0014388183158053573,0.03597045789513393,8.537039860002654e-05,8.537039860002654e-05,-0.001663172445605404,-0.0415793111401351,-8.99034564082106e-05,-8.99034564082106e-05,-0.07684764318764087,-1.9211910796910217,0.024403697274768765,0.001626913151651251,-1.8967873824162529,0.04166921459654331,-0.03605582829373396,0.0,0.3043740482678518,-0.3591161462066208,-0.9092706778393789,0.049637398654383165,0.002183218780517597,-0.058994677666139056,-0.0017160267365954856,-37,75,-128,-0.07921634438160702,-19.804086095401754,-12.50915840298115,-0.0250183168059623,0.01208057707521859,3.0201442688046476,39.02510342132665,0.07805020684265329,34103.21261758375,34031.21261758375,34212.21261758375,33919.21261758375,34250.21261758375,15740.295972486441,15535.152384749617,15744.139898460762,15531.46516957036
48,0.096,0.0,0.0,0.001503232,0.0,-5.2434771628798075e-05,7.444968631571424e-05,0.014705385962763618,-0.0013864106512611967,0.0015361274050830448,0.0598681160731079,-0.0071983889885480976,0.02217159098282851,0.2550620823717713,0.38404864886606294,-0.38820444752004063,-2.5859378066567675,8.776408695801451e-05,-0.00013092328651512054,-0.02684191035877706,0.0014388183158053573,0.03597045789513393,8.537039860002654e-05,8.537039860002654e-05,-0.001663172445605404,-0.0415793111401351,-8.99034564082106e-05,-8.99034564082106e-05,-0.07684764318764087,-1.9211910796910217,0.024403697274768765,0.001626913151651251,-1.8967873824162529,0.04166921459654331,-0.03605582829373396,0.0,0.3000484834736118,-0.35486196038482065,-0.6825483159269211,0.04886760358509141,0.0022809539876877797,-0.05822741927656247,-0.0018324815751486105,-34,68,-221,-0.08400016539245114,-21.000041348112784,-12.5931585683736,-0.0251863171367472,0.03334248713521998,8.335621783804994,39.05844590846186,0.07811689181692373,34103.21261758375,33933.21261758375,34307.21261758375,33831.21261758375,34341.21261758375,15729.057398328836,15550.36549231655,15730.416533110201,15547.720661738364
49,0.098,0.0,0.0,0.001565807703703704,0.0,-5.522088455348688e-05,7.752615507829113e-05,0.014830067029791635,-0.0013952456634426925,0.0015389111840031888,0.06316464802917257,-0.006432357421445955,0.021382386945190877,0.24917951574783542,0.3811817411726164,-0.3972001188232876,-3.059665475092209,8.776408695801451e-05,-0.00013092328651512054,-0.02684191035877706,0.0014388183158053573,0.03597045789513393,8.537039860002654e-05,8.537039860002654e-05,-0.001663172445605404,-0.0415793111401351,-8.99034564082106e-05,-8.99034564082106e-05,-0.07684764318764087,-1.9211910796910217,0.024403697274768765,0.001626913151651251,-1.8967873824162529,0.04166921459654331,-0.03605582829373396,0.0,0.2957409035031069,-0.3504713654504284,-0.47547332129729847,0.048101572017989265,0.002377157131723758,-0.05743821523892484,-0.0019473580056264602,-30,62,-303,-0.0854408376695095,-21.360209417377373,-12.678599406043109,-0.02535719881208622,0.0467287533728592,11.6821883432148,39.105174661834724,0.07821034932366945,34103.21261758375,33846.21261758375,34390.21261758375,33754.21261758375,34422.21261758375,15717.019392125494,15565.921333614247,15716.32663847455,15564.18173277185
50,0.1,0.0,0.0,0.0016296296296296295,0.0,-5.8024196117752516e-05,8.060773414448585e-05,0.01496134684469297,-0.0014037658202300319,0.0015413903153172353,0.06646496911877547,-0.0056757894743527685,0.020585268926891814,0.2424638921482434,0.3756791046437201,-0.3994843006094774,-3.457134498927782,0.00011536512464358319,-0.0001617051160973226,-0.027476297569922488,0.001512595549880728,0.0378148887470182,0.00010049635409883381,0.00010049635409883381,-0.0017090220587407771,-0.04272555146851943,-0.00010699367699561838,-0.00010699367699561838,-0.09394126668869796,-2.3485316672174488,0.010312507271464072,0.0006875004847642714,-2.3382191599459845,0.04283254514551505,-0.037915385101117034,0.0,0.2984725291220974,-0.3571970021091005,-0.2898795367442188,0.04850833461986782,0.002474173800963494,-0.058500654028008844,-0.002064359313682478,-25,52,-373,-0.07720657552162274,-19.301643880405685,-12.755805981564732,-0.025511611963129465,0.042287298500376935,10.571824625094234,39.14746196033511,0.07829492392067021,33661.780840054016,33327.280840054016,34021.280840054016,33250.280840054016,34048.280840054016,15695.164290606781,15572.376104277515,15692.908235155737,15571.358618447077
51,0.102,0.0,0.0,0.0016946959999999994,0.0,-6.084405411281307e-05,8.369381463852619e-05,0.015099191827045675,-0.0014119566035064796,0.0015435652820823705,0.06974164042303739,-0.004932963670417506,0.019791328062313946,0.23506952636419828,0.3682545115559251,-0.3965882851841818,-3.7771473035904033,0.00011536512464358319,-0.0001617051160973226,-0.027476297569922488,0.001512595549880728,0.0378148887470182,0.00010049635409883381,0.00010049635409883381,-0.0017090220587407771,-0.04272555146851943,-0.00010699367699561838,-0.00010699367699561838,-0.09394126668869796,-2.3485316672174488,0.010312507271464072,0.0006875004847642714,-2.3382191599459845,0.04283254514551505,-0.037915385101117034,0.0,0.2943021673513814,-0.3527795972006139,-0.12720359881338344,0.047765508815932556,0.002569704818595359,-0.057706713163430984,-0.00217977274000934,-22,46,-431,-0.07395234420454366,-18.488086051135916,-12.829758325769276,-0.025659516651538553,0.04380868798356791,10.952171995891977,39.19127064831867,0.07838254129663734,33661.780840054016,33264.780840054016,34080.780840054016,33196.780840054016,34104.780840054016,15673.976128311982,15579.486602747453,15670.487721265219,15579.06249522938
52,0.104,0.0,0.0,0.001761005037037037,0.0,-6.36798018667825e-05,8.678379696815675e-05,0.015243557882443498,-0.0014198197397267361,0.001545442031802507,0.07299679870495533,-0.004207087002296102,0.019009319816255203,0.2271502398708672,0.35937914721215225,-0.38956343628708867,-4.020431489476939,0.00011536512464358319,-0.0001617051160973226,-0.027476297569922488,0.001512595549880728,0.0378148887470182,0.00010049635409883381,0.00010049635409883381,-0.0017090220587407771,-0.04272555146851943,-0.00010699367699561838,-0.00010699367699561838,-0.09394126668869796,-2.3485316672174488,0.010312507271464072,0.0006875004847642714,-2.3382191599459845,0.04283254514551505,-0.037915385101117034,0.0,0.2902291451355398,-0.3484290959537657,0.011718943791906774,0.04703963214781115,0.002663784082890981,-0.05692470491737224,-0.002293622149844084,-19,40,-477,-0.06915000207661243,-17.287500519153106,-12.898908327845888,-0.025797816655691776,0.04113434033332297,10.283585083330744,39.23240498865199,0.07846480997730398,33661.780840054016,33214.280840054016,34128.280840054016,33155.280840054016,34149.280840054016,15653.64678697615,15586.94184573497,15649.227446628405,15586.994267723827
53,0.106,0.0,0.0,0.0018285549629629633,0.0,-6.653079161397202e-05,8.987709530355672e-05,0.01539440490547857,-0.0014273605200418006,0.0015470277260875229,0.07623239104355754,-0.0035004813971347554,0.01824604994208186,0.21885652179520837,0.3494801568917582,-0.3793637443896585,-4.188965742146532,0.00011536512464358319,-0.0001617051160973226,-0.027476297569922488,0.001512595549880728,0.0378148887470182,0.00010049635409883381,0.00010049635409883381,-0.0017090220587407771,-0.04272555146851943,-0.00010699367699561838,-0.00010699367699561838,-0.09394126668869796,-2.3485316672174488,0.010312507271464072,0.0006875004847642714,-2.3382191599459845,0.04283254514551505,-0.037915385101117034,0.0,0.2862675096638277,-0.34418644531898485,0.12656906610962085,0.046333026542649806,0.0027564501359762807,-0.0561614350431989,-0.002405945019930482,-16,35,-511,-0.06321264722793052,-15.80316180698263,-12.96212097507382,-0.02592424195014764,0.03517729907067363,8.794324767668407,39.26758228772267,0.07853516457544533,33661.780840054016,33176.280840054016,34163.280840054016,33125.280840054016,34182.280840054016,15634.361858730825,15594.449221679673,15629.264890955545,15594.892943295828
54,0.108,0.0,0.0,0.0018973439999999998,0.0,-6.939639041790143e-05,9.297313948641698e-05,0.015551696425122196,-0.001434587002904579,0.0015483303975636444,0.07945019133297881,-0.002814667014226341,0.017506697944281443,0.21033319994577657,0.33894364496214496,-0.3667597747531878,-4.285864462058585,0.00011536512464358319,-0.0001617051160973226,-0.027476297569922488,0.001512595549880728,0.0378148887470182,0.00010049635409883381,0.00010049635409883381,-0.0017090220587407771,-0.04272555146851943,-0.00010699367699561838,-0.00010699367699561838,-0.09394126668869796,-2.3485316672174488,0.010312507271464072,0.0006875004847642714,-2.3382191599459845,0.04283254514551505,-0.037915385101117034,0.0,0.28242650663933566,-0.34008286583045466,0.2174689912165924,0.04564721215974139,0.0028477445602957635,-0.055422083045398474,-0.002516789186021279,-13,30,-534,-0.0565171383228093,-14.129284580702326,-13.018638113396628,-0.026037276226793256,0.02667690892273311,6.669227230683278,39.2942591966454,0.0785885183932908,33661.780840054016,33149.280840054016,34187.280840054016,33106.280840054016,34204.280840054016,15616.258769751417,15601.77438356923,15610.714776588497,15602.532021842671
55,0.11,0.0,0.0,0.00196737037037037,0.0,-7.22759846647584e-05,9.607137630383547e-05,0.01571539927980868,-0.0014415093324506435,0.0015493586405164253,0.0826518145847768,-0.0021504375558547527,0.016795015531471256,0.20171749116261953,0.3281192824446715,-0.3524505509055562,-4.3151633217659935,0.00014387461049608129,-0.00019265047539857022,-0.028377661103219622,0.0015799202952703464,0.03949800738175866,0.00011629555705153727,0.00011629555705153727,-0.0017470745307085803,-0.04367686326771451,-0.00012446442230270417,-0.00012446442230270417,-0.11102947568799643,-2.7757368921999106,-0.0063419140817353925,-0.0004227942721156928,-2.782078806281646,0.04380132769001721,-0.0396143029388102,0.0,0.2845295357475943,-0.3463447342905742,0.28492752233512575,0.04595176524587197,0.0029396480907875073,-0.05640931847028145,-0.002629607822961842,-10,22,-546,-0.04358974669707716,-10.89743667426929,-13.062227860093705,-0.02612445572018741,0.006105816614981996,1.526454153745499,39.30036501326038,0.07860073002652077,33217.92119371836,32687.921193718357,33757.92119371836,32655.921193718357,33769.92119371836,15590.002570962257,15599.457012782996,15584.280370503106,15600.397431329993
56,0.112,0.0,0.0,0.0020386322962962964,0.0,-7.516897117480237e-05,9.917126853851108e-05,0.015885442336025294,-0.0014481310652475117,0.0015501202575024374,0.0858114080441142,-0.0015079256447245574,0.016113039308097096,0.19313785513221443,0.31732570851637165,-0.33734999983648645,-4.2813550830833895,0.00014387461049608129,-0.00019265047539857022,-0.028377661103219622,0.0015799202952703464,0.03949800738175866,0.00011629555705153727,0.00011629555705153727,-0.0017470745307085803,-0.04367686326771451,-0.00012446442230270417,-0.00012446442230270417,-0.11102947568799643,-2.7757368921999106,-0.0063419140817353925,-0.0004227942721156928,-2.782078806281646,0.04380132769001721,-0.0396143029388102,0.0,0.2809463198008216,-0.34258724100381077,0.329706331075702,0.04530925333474177,0.0030302665974569908,-0.0557273422469073,-0.0027410625074556563,-8,19,-547,-0.036379388715550076,-9.09484717888752,-13.098607248809255,-0.026197214497618512,-0.005237241167324325,-1.309310291831081,39.29512777209305,0.07859025554418611,33217.92119371836,32684.421193718357,33759.42119371836,32657.421193718357,33770.42119371836,15566.058699249716,15597.38177157408,15560.281078146347,15598.46737921656
57,0.114,0.0,0.0,0.002111128,0.0,-7.807476954794206e-05,0.00010227229734233179,0.01606174731292678,-0.0014544661082564058,0.0015506248429076666,0.08893282417930048,-0.0008868105844712344,0.015461811225950249,0.18471190654643102,0.30675369680279624,-0.3218196274911955,-4.190172104123141,0.00014387461049608129,-0.00019265047539857022,-0.028377661103219622,0.0015799202952703464,0.03949800738175866,0.00011629555705153727,0.00011629555705153727,-0.0017470745307085803,-0.04367686326771451,-0.00012446442230270417,-0.00012446442230270417,-0.11102947568799643,-2.7757368921999106,-0.0063419140817353925,-0.0004227942721156928,-2.782078806281646,0.04380132769001721,-0.0396143029388102,0.0,0.2774877582689486,-0.3390103291959183,0.3529972959685146,0.04468813827448845,0.0031196428740059676,-0.05507611416476045,-0.002851214735785177,-7,15,-539,-0.029265938533847624,-7.316484633461906,-13.127873187343104,-0.02625574637468621,-0.017190701704722755,-4.297675426180689,39.27793707038833,0.07855587414077667,33217.92119371836,32689.921193718357,33752.92119371836,32667.921193718357,33760.92119371836,15544.408770060883,15595.358859083373,15538.687420393891,15596.513563502449
58,0.116,0.0,0.0,0.002184855703703704,0.0,-8.099282750878045e-05,0.00010537396265794774,0.016244243099861035,-0.0014605285522555844,0.001550881714019485,0.09201955896510905,-0.00028655269564270314,0.014841563180268257,0.1765451121550862,0.2964808683014102,-0.3062814891934938,-4.047802218373828,0.00014387461049608129,-0.00019265047539857022,-0.028377661103219622,0.0015799202952703464,0.03949800738175866,0.00011629555705153727,0.00011629555705153727,-0.0017470745307085803,-0.04367686326771451,-0.00012446442230270417,-0.00012446442230270417,-0.11102947568799643,-2.7757368921999106,-0.0063419140817353925,-0.0004227942721156928,-2.782078806281646,0.04380132769001721,-0.0396143029388102,0.0,0.2741507382182914,-0.33561557611854076,0.3562929880655205,0.04408788038565992,0.0032078186347772875,-0.05445586611907846,-0.002960126468023334,-5,12,-523,-0.022330130083118793,-5.582532520779698,-13.150203317426223,-0.026300406634852447,-0.029334086925046965,-7.333521731261741,39.248602983463286,0.07849720596692657,33217.92119371836,32703.421193718357,33737.42119371836,32686.421193718357,33744.42119371836,15525.014713237544,15593.194701146564,15519.451191479038,15594.391282075265
59,0.118,0.0,0.0,0.002259813629629629,0.0,-8.392262086423492e-05,0.00010847578253321282,0.01643286509184076,-0.0014663323946347534,0.0015508998308926224,0.09507478418842705,0.00029367944761621696,0.014251887369079789,0.16873010724395754,0.2866716211545845,-0.29102336106147875,-3.8607371422961343,0.00014387461049608129,-0.00019265047539857022,-0.028377661103219622,0.0015799202952703464,0.03949800738175866,0.00011629555705153727,0.00011629555705153727,-0.0017470745307085803,-0.04367686326771451,-0.00012446442230270417,-0.00012446442230270417,-0.11102947568799643,-2.7757368921999106,-0.0063419140817353925,-0.0004227942721156928,-2.782078806281646,0.04380132769001721,-0.0396143029388102,0.0,0.2709303912481922,-0.3324007183932573,0.34128239827997586,0.04350764824240099,0.0032948339312620896,-0.053866190307889986,-0.003067858848639114,-4,9,-499,-0.015741229906392318,-3.9353074765980796,-13.165944547332616,-0.02633188909466523,-0.04137735733177855,-10.344339332944639,39.2072256261315,0.07841445125226301,33217.92119371836,32725.421193718357,33714.42119371836,32712.421193718357,33719.42119371836,15507.852464816424,15590.744671590333,15502.517770437473,15591.937402358657
60,0.12,0.0,0.0,0.0023360000000000004,0.0,-8.686365292918122e-05,0.00011157729230661452,0.016627554585830647,-0.0014718912899251149,0.0015506877237938315,0.09810137722339692,0.0008548850988026999,0.013691844055514856,0.16134612845783136,0.27737934230016176,-0.2763054308520265,-3.635745434570351,0.0001730982098267402,-0.00022364291893437095,-0.029536170228933442,0.001640616900027325,0.04101542250068312,0.0001327017260518105,0.0001327017260518105,-0.0017784693658390643,-0.04446173414597661,-0.0001422491159610948,-0.0001422491159610948,-0.12763754745233036,-3.190938686308259,-0.025487546199584946,-0.0016991697466389964,-3.2164262325078443,0.0446039832619377,-0.04114812422673493,0.0,0.27264158536157507,-0.33857242604910953,0.30983400686438295,0.043749098163135,0.0033823321275883596,-0.05483996828224979,-0.0031775387852036137,-2,5,-468,-0.00473775693858669,-1.1844392346466726,-13.170682304271201,-0.026341364608542403,-0.06226699519708301,-15.566748799270751,39.144958630934426,0.07828991726186885,32783.573767492155,32319.073767492155,33250.073767492155,32312.073767492155,33253.073767492155,15483.567563445169,15578.738434699724,15478.567788029695,15579.886132362362
61,0.122,0.0,0.0,0.0024134130370370367,0.0,-8.981544382162021e-05,0.00011467804413654449,0.01682821802634258,-0.001477211894166702,0.001550253781527294,0.10107514419269287,0.0013983160457373479,0.013159860133462334,0.15445894542035218,0.268751449347651,-0.26246423478296377,-3.3795489775597556,0.0001730982098267402,-0.00022364291893437095,-0.029536170228933442,0.001640616900027325,0.04101542250068312,0.0001327017260518105,0.0001327017260518105,-0.0017784693658390643,-0.04446173414597661,-0.0001422491159610948,-0.0001422491159610948,-0.12763754745233036,-3.190938686308259,-0.025487546199584946,-0.0016991697466389964,-3.2164262325078443,0.0446039832619377,-0.04114812422673493,0.0,0.2696402336832644,-0.3357063704229556,0.26390893118519243,0.04320566721620035,0.0034687434620207605,-0.054307984360197264,-0.003286154753924008,-2,3,-432,0.0008887843356134018,0.22219608390335044,-13.169793519935588,-0.026339587039871177,-0.07324213563999182,-18.310533909997957,39.07171649529443,0.07814343299058886,32783.573767492155,32354.073767492155,33215.073767492155,32349.073767492155,33216.073767492155,15462.24040301238,15567.083831212241,15457.588031390576,15568.148336493923
62,0.124,0.0,0.0,0.002492050962962963,0.0,-9.277753726135676e-05,0.00011777760632869658,0.01703475703061179,-0.0014823076757248736,0.0015496059384370754,0.10400093130812775,0.0019252085615252227,0.01265403110807625,0.14812062892777147,0.26072577875306535,-0.249609113776462,-3.0990397568726267,0.0001730982098267402,-0.00022364291893437095,-0.029536170228933442,0.001640616900027325,0.04101542250068312,0.0001327017260518105,0.0001327017260518105,-0.0017784693658390643,-0.04446173414597661,-0.0001422491159610948,-0.0001422491159610948,-0.12763754745233036,-3.190938686308259,-0.025487546199584946,-0.0016991697466389964,-3.2164262325078443,0.0446039832619377,-0.04114812422673493,0.0,0.2667349512367396,-0.33299420920264794,0.20559094352558904,0.04267877470041248,0.0035541010114215855,-0.05380215533481118,-0.0033937590645936305,-1,2,-391,0.006009172483674274,1.5022931209185686,-13.163784347451914,-0.026327568694903828,-0.08338509542618594,-20.846273856546485,38.988331399868244,0.07797666279973649,32783.573767492155,32394.073767492155,33174.073767492155,32391.073767492155,33175.073767492155,15443.708747490176,15555.621568343586,15439.415086685252,15556.610457249646
63,0.126,0.0,0.0,0.0025719120000000004,0.0,-9.57495023427685e-05,0.00012087556206022789,0.017247082228487812,-0.0014871910556912358,0.0015487514690940873,0.10688313157809959,0.0024368295671778764,0.012172392309832534,0.14236960991719516,0.2533412172852087,-0.2377439538678152,-2.8010137449684875,0.0001730982098267402,-0.00022364291893437095,-0.029536170228933442,0.001640616900027325,0.04101542250068312,0.0001327017260518105,0.0001327017260518105,-0.0017784693658390643,-0.04446173414597661,-0.0001422491159610948,-0.0001422491159610948,-0.12763754745233036,-3.190938686308259,-0.025487546199584946,-0.0016991697466389964,-3.2164262325078443,0.0446039832619377,-0.04114812422673493,0.0,0.26391822812499227,-0.33042429951240504,0.1370352590184433,0.042167153694759825,0.0036384353188111053,-0.05332051653656746,-0.003500400097666765,-1,0,-347,0.010577010839783574,2.6442527099458935,-13.15320733661213,-0.02630641467322426,-0.09268034564458985,-23.170086411147462,38.895651054223656,0.07779130210844731,32783.573767492155,32437.073767492155,33131.073767492155,32436.073767492155,33130.073767492155,15427.7821207922,15544.291283754366,15423.857396628442,15545.16910279286
64,0.128,0.0,0.0,0.0026529943703703703,0.0,-9.87309314302335e-05,0.00012397150812401244,0.01746511242010924,-0.0014918734079548421,0.001547697024051558,0.10972572752840397,0.0029343782111624526,0.011712828706231077,0.13723118662797895,0.2465377702631145,-0.22696758833165248,-2.491960813853605,0.0001730982098267402,-0.00022364291893437095,-0.029536170228933442,0.001640616900027325,0.04101542250068312,0.0001327017260518105,0.0001327017260518105,-0.0017784693658390643,-0.04446173414597661,-0.0001422491159610948,-0.0001422491159610948,-0.12763754745233036,-3.190938686308259,-0.025487546199584946,-0.0016991697466389964,-3.2164262325078443,0.0446039832619377,-0.04114812422673493,0.0,0.26118295389138946,-0.32798408360839415,0.06038708514246645,0.04166960505077525,0.0037217745289126556,-0.052860952932966006,-0.0036061220035326974,0,0,-301,0.014645183628274966,3.6612959070687414,-13.138562152983855,-0.026277124305967712,-0.10101649527674167,-25.254123819185416,38.79463455894692,0.07758926911789384,32783.573767492155,32482.573767492155,33084.573767492155,32482.573767492155,33084.573767492155,15414.276545839708,15533.00624106486,15410.708614781746,15533.804258372582
65,0.13,0.0,0.0,0.0027352962962962964,0.0,-0.00010172143807119069,0.00012706505371744403,0.017688773813434026,-0.0014963650578547257,0.0015464486607748864,0.11253233019903579,0.003419087072801418,0.011273326708604514,0.13271825669762138,0.24035625081206996,-0.21717905623416878,-2.1779847961737975,0.00020285367137680554,-0.000254600674325311,-0.0309347834791333,0.0016956325698635137,0.04239081424658784,0.00014965805175044564,0.00014965805175044564,-0.0018045113191735313,-0.04511278297933828,-0.00016029422915283013,-0.00016029422915283013,-0.14346711367816908,-3.586677841954227,-0.0470076132513103,-0.003133840883420687,-3.6336854552055375,0.04527307720849111,-0.04254047229833829,0.0,0.26254038834169025,-0.33402404284629655,-0.022262109589045623,0.04185399013568969,0.003805482509184035,-0.0538137990069428,-0.003713749601546583,0,-2,-254,0.022184137529620285,5.546034382405071,-13.116378015454234,-0.02623275603090847,-0.11684498661212778,-29.211246653031946,38.67778957233479,0.07735557914466958,32366.314544794463,32111.314544794463,32621.314544794463,32113.314544794463,32619.314544794463,15394.038043469069,15512.898093275318,15390.837477607049,15513.580891925052
66,0.132,0.0,0.0,0.002818816000000001,0.0,-0.00010472064722933313,0.00013015582152503457,0.01791796065450296,-0.0015006701985678802,0.001545013367689154,0.11528042817844185,0.0038921286469050373,0.010851764259279997,0.12883219775414745,0.23474186492451243,-0.20848370622517173,-1.8647311471511525,0.00020285367137680554,-0.000254600674325311,-0.0309347834791333,0.0016956325698635137,0.04239081424658784,0.00014965805175044564,0.00014965805175044564,-0.0018045113191735313,-0.04511278297933828,-0.00016029422915283013,-0.00016029422915283013,-0.14346711367816908,-3.586677841954227,-0.0470076132513103,-0.003133840883420687,-3.6336854552055375,0.04527307720849111,-0.04254047229833829,0.0,0.25995042458843803,-0.33181502156969517,-0.1089058430283459,0.04138094856158607,0.003888244406307207,-0.05339223655761828,-0.0038205340746618197,0,-3,-206,0.0252085596639256,6.3021399159814,-13.09116945579031,-0.02618233891158062,-0.12333131534452343,-30.832828836130858,38.55445825699026,0.07710891651398052,32366.314544794463,32158.814544794463,32573.814544794463,32161.814544794463,32570.814544794463,15376.660479285532,15493.604154056615,15373.815337536389,15494.160825512061
67,0.134,0.0,0.0,0.002903551703703704,0.0,-0.00010772819975712006,0.00013324344557705267,0.01815256397834589,-0.0015047979993954947,0.001543396362524227,0.11797538437055954,0.0043545690403073165,0.010445975005331811,0.12556367689416767,0.22964110061605358,-0.20087515246682122,-1.55745845763151,0.00020285367137680554,-0.000254600674325311,-0.0309347834791333,0.0016956325698635137,0.04239081424658784,0.00014965805175044564,0.00014965805175044564,-0.0018045113191735313,-0.04511278297933828,-0.00016029422915283013,-0.00016029422915283013,-0.14346711367816908,-3.586677841954227,-0.0470076132513103,-0.003133840883420687,-3.6336854552055375,0.04527307720849111,-0.04254047229833829,0.0,0.2574212932770335,-0.3296982047298281,-0.19761500983373304,0.04091850816818379,0.003970081422643575,-0.052986447303670095,-0.0039265069692691595,0,-3,-158,0.02778019266097992,6.945048165244979,-13.063389263129329,-0.026126778526258658,-0.12882305226300686,-32.20576306575172,38.42563520472726,0.07685127040945451,32366.314544794463,32206.814544794463,32525.814544794463,32209.814544794463,32522.814544794463,15361.893750404137,15475.038981646938,15359.37167343199,15475.480944767605
68,0.136,0.0,0.0,0.0029895016296296296,0.0,-0.00011074375317096565,0.00013632756951622658,0.018392484794830275,-0.0015087565148689096,0.0015416023186337006,0.12062206103570677,0.004807376163946207,0.010053946295695133,0.12289358674288398,0.22500572773116445,-0.19425211228291014,-1.260930221241547,0.00020285367137680554,-0.000254600674325311,-0.0309347834791333,0.0016956325698635137,0.04239081424658784,0.00014965805175044564,0.00014965805175044564,-0.0018045113191735313,-0.04511278297933828,-0.00016029422915283013,-0.00016029422915283013,-0.14346711367816908,-3.586677841954227,-0.0470076132513103,-0.003133840883420687,-3.6336854552055375,0.04527307720849111,-0.04254047229833829,0.0,0.2549472447414674,-0.3276615989835723,-0.28656563012133157,0.0404657010445449,0.004051012824732665,-0.052594418594033424,-0.004031695806457227,0,-3,-112,0.029941517010302954,7.485379252575738,-13.033447746119027,-0.026066895492238052,-0.13340948670066213,-33.352371675165536,38.29222571802659,0.07658445143605319,32366.314544794463,32252.814544794463,32479.814544794463,32255.814544794463,32476.814544794463,15349.456826736014,15457.1783322308,15347.228399065682,15457.515969668519
69,0.138,0.0,0.0,0.003076664000000001,0.0,-0.0001137669795349023,0.00013940784560071654,0.018637633159627798,-0.0015125527661766498,0.001539635425655574,0.12322486795954855,0.005251429124265601,0.009673851998627313,0.12079429497772567,0.22079226189227502,-0.18852296328246052,-0.9792419414922382,0.00020285367137680554,-0.000254600674325311,-0.0309347834791333,0.0016956325698635137,0.04239081424658784,0.00014965805175044564,0.00014965805175044564,-0.0018045113191735313,-0.04511278297933828,-0.00016029422915283013,-0.00016029422915283013,-0.14346711367816908,-3.586677841954227,-0.0470076132513103,-0.003133840883420687,-3.6336854552055375,0.04527307720849111,-0.04254047229833829,0.0,0.2525230568680564,-0.3256943191469471,-0.374101185692281,0.04002164808422551,0.004131056120901116,-0.0522143242969656,-0.004136124455051158,0,-3,-68,0.03173079497578135,7.932698743945338,-13.001716951143244,-0.026003433902286488,-0.13717135586448656,-34.29283896612164,38.155054362162105,0.07631010872432421,32366.314544794463,32296.814544794463,32435.814544794463,32299.814544794463,32432.814544794463,15339.09431980161,15440.00025524589,15337.13280218173,15440.243007657731
70,0.14,0.0,0.0,0.0031650370370370374,0.0,-0.00011679756355782942,0.00014248393381713738,0.018887927334188204,-0.0015161928496366403,0.0015374994427325127,0.12578780573495257,0.0056875266385941455,0.00930403454036252,0.1192308838503145,0.21696145995566254,-0.18360478041000614,-0.7158854316140897,0.00023300161174968483,-0.000285453355065684,-0.03255222349064593,0.001745991688292629,0.04364979220731573,0.00016711796863337194,0.00016711796863337194,-0.0018261046205942067,-0.045652615514855166,-0.0001785552753587722,-0.0001785552753587722,-0.1583400292255985,-3.9585007306399627,-0.07075861763515007,-0.004717241175676672,-4.0292593482751125,0.04583117079021394,-0.043816910175949096,0.0,0.25349589513733184,-0.331452767331321,-0.45873829230126073,0.04014364415161979,0.0042113434092043555,-0.05312094471631162,-0.004242366344483781,0,-5,-26,0.036534435181669295,9.133608795417324,-12.965182515961574,-0.02593036503192315,-0.14784798692131487,-36.96199673032872,38.00720637524079,0.07601441275048158,31970.74065172489,31942.24065172489,31999.24065172489,31947.24065172489,31994.24065172489,15322.049959773762,15415.011062447837,15320.374563146295,15415.124032882837
71,0.142,0.0,0.0,0.0032546189629629628,0.0,-0.00011983519485952127,0.00014555550465388765,0.01914325632831097,-0.0015196780265188759,0.001535200136673473,0.12829003993779647,0.006116396735175606,0.008942694792518104,0.1181620968885754,0.2134792893161306,-0.17961843679361106,-0.4739226148885328,0.00023300161174968483,-0.000285453355065684,-0.03255222349064593,0.001745991688292629,0.04364979220731573,0.00016711796863337194,0.00016711796863337194,-0.0018261046205942067,-0.045652615514855166,-0.0001785552753587722,-0.0001785552753587722,-0.1583400292255985,-3.9585007306399627,-0.07075861763515007,-0.004717241175676672,-4.0292593482751125,0.04583117079021394,-0.043816910175949096,0.0,0.2511609632021733,-0.3296012864740653,-0.5391211237172184,0.039714774055038336,0.004290772957314433,-0.0527596049684672,-0.004347885554420715,0,-4,12,0.03768167388604268,9.42041847151067,-12.927500842075533,-0.025855001684151065,-0.14998284968045422,-37.495712420113556,37.85722352556034,0.07571444705112068,31970.74065172489,31980.74065172489,31960.74065172489,31984.74065172489,31956.74065172489,15307.384938830875,15391.464002703799,15305.948040706297,15391.480481023882
72,0.144,0.0,0.0,0.0033454079999999994,0.0,-0.0001228795714038648,0.0001486222362505564,0.019403507087172214,-0.001523013416826859,0.0015327406710651935,0.1307371387416218,0.006538701796685339,0.008588245763539512,0.11754181407914889,0.2103135345620747,-0.17638110270500504,-0.2555752338304803,0.00023300161174968483,-0.000285453355065684,-0.03255222349064593,0.001745991688292629,0.04364979220731573,0.00016711796863337194,0.00016711796863337194,-0.0018261046205942067,-0.045652615514855166,-0.0001785552753587722,-0.0001785552753587722,-0.1583400292255985,-3.9585007306399627,-0.07075861763515007,-0.004717241175676672,-4.0292593482751125,0.04583117079021394,-0.043816910175949096,0.0,0.2488628876470761,-0.3277890232358307,-0.6141227371435194,0.039292468993528604,0.00436935789530149,-0.05240515593948861,-0.004452695866299692,0,-4,47,0.0385493530850014,9.63733827125035,-12.888951488990532,-0.025777902977981063,-0.15140792053082566,-37.851980132706416,37.705815605029514,0.07541163121005903,31970.74065172489,32015.74065172489,31925.74065172489,32019.74065172489,31921.74065172489,15294.807078995096,15369.30295854807,15293.586950569555,15369.231669511297
73,0.146,0.0,0.0,0.00343740237037037,0.0,-0.00012593040008779065,0.00015168381255761652,0.019668576915197848,-0.0015262032819013062,0.001530123867977846,0.13313415225860645,0.006955043543915126,0.008239294914724866,0.11732028192797508,0.20743483664361095,-0.17382300565270578,-0.06252504495975808,0.00023300161174968483,-0.000285453355065684,-0.03255222349064593,0.001745991688292629,0.04364979220731573,0.00016711796863337194,0.00016711796863337194,-0.0018261046205942067,-0.045652615514855166,-0.0001785552753587722,-0.0001785552753587722,-0.1583400292255985,-3.9585007306399627,-0.07075861763515007,-0.004717241175676672,-4.0292593482751125,0.04583117079021394,-0.043816910175949096,0.0,0.24659809392717513,-0.3260076553734869,-0.682809549994556,0.03887612724629881,0.0044471101497940875,-0.05205620509067396,-0.00455680827648104,0,-3,78,0.03916325728356418,9.790814320891045,-12.849788231706967,-0.025699576463413934,-0.15218464972078113,-38.04616243019528,37.55363095530873,0.07510726191061746,31970.74065172489,32047.24065172489,31894.24065172489,32050.24065172489,31891.24065172489,15284.050888316044,15348.47703743913,15283.006256350096,15348.347495790284
74,0.148,0.0,0.0,0.003530600296296296,0.0,-0.00012898739522629205,0.0001547399227117876,0.019938372514308658,-0.0015292511518653826,0.0015273522466336044,0.1354856621178113,0.007365969015951079,0.007894721207440648,0.11744528177969715,0.2048169906158617,-0.17178538400735932,0.1041450894619483,0.00023300161174968483,-0.000285453355065684,-0.03255222349064593,0.001745991688292629,0.04364979220731573,0.00016711796863337194,0.00016711796863337194,-0.0018261046205942067,-0.045652615514855166,-0.0001785552753587722,-0.0001785552753587722,-0.1583400292255985,-3.9585007306399627,-0.07075861763515007,-0.004717241175676672,-4.0292593482751125,0.04583117079021394,-0.043816910175949096,0.0,0.244363332305605,-0.32425048291808195,-0.7444375401752258,0.03846520177426286,0.004524040553342613,-0.051711631383389745,-0.00466023153924782,0,-3,106,0.0395463416897433,9.886585422435825,-12.810241890017224,-0.025620483780034446,-0.15246509891072263,-38.116274727680654,37.40116585639801,0.07480233171279602,31970.74065172489,32075.24065172489,31866.24065172489,32078.24065172489,31863.24065172489,15274.875122138666,15328.940084722244,15273.990004218282,15328.757557718485
75,0.15,0.0,0.0,0.0036249999999999993,0.0,-0.0001320502772512735,0.00015779026048174378,0.020212809113259914,-0.001532159938688441,0.0015244280573831123,0.13779582566880366,0.007771975266633019,0.007553554002466781,0.11786307621659461,0.2024359594035998,-0.17021993891732323,0.24378360645583974,0.00026345081587524923,-0.0003161231337861949,-0.03436500016842972,0.0017924716159441949,0.04481179039860487,0.00018504268479281388,0.00018504268479281388,-0.001843699767809882,-0.046092494195247045,-0.000196992273036871,-0.000196992273036871,-0.17216082583723338,-4.3040206459308346,-0.09658274151073508,-0.006438849434049005,-4.40060338744157,0.046289486468283916,-0.044996833083397685,0.0,0.2449082939371431,-0.32959831945544543,-0.7984190853547375,0.038517511201650895,0.004601075575745915,-0.052550387085864465,-0.004765332313419549,0,-4,129,0.04247233453354332,10.61808363338583,-12.76776955548368,-0.02553553911096736,-0.1593783805381222,-39.84459513453055,37.24178747585989,0.07448357495171977,31599.39661255843,31726.39661255843,31472.39661255843,31730.39661255843,31468.39661255843,15259.007150681675,15302.650960714374,15258.28903251669,15302.398138596023
76,0.152,0.0,0.0,0.0037205997037037036,0.0,-0.00013511876703615873,0.00016083452837866414,0.02049177522057477,-0.0015349289812733595,0.0015213563940909179,0.1400454438387068,0.008173514974376406,0.007214763759567897,0.11851932823116844,0.20027079602249764,-0.16918116667296368,0.3562079470087338,0.00026345081587524923,-0.0003161231337861949,-0.03436500016842972,0.0017924716159441949,0.04481179039860487,0.00018504268479281388,0.00018504268479281388,-0.001843699767809882,-0.046092494195247045,-0.000196992273036871,-0.000196992273036871,-0.17216082583723338,-4.3040206459308346,-0.09658274151073508,-0.006438849434049005,-4.40060338744157,0.046289486468283916,-0.044996833083397685,0.0,0.24272775151964626,-0.32787884757910996,-0.8443237121920063,0.03811597149390751,0.00467730751873373,-0.052211596842965585,-0.00486975550710548,0,-3,148,0.04245695549714862,10.614238874287155,-12.725312599986532,-0.025450625199973063,-0.15869768090614628,-39.67442022653657,37.08308979495374,0.07416617958990748,31599.39661255843,31745.89661255843,31452.89661255843,31748.89661255843,31449.89661255843,15245.003526215547,15278.328123567075,15244.41557296387,15278.033099238006
77,0.154,0.0,0.0,0.00381739762962963,0.0,-0.00013819258880776617,0.00016387243421441748,0.02077515808665518,-0.0015375607196421628,0.001518139079016916,0.14224007736155084,0.008570999939637088,0.006877510080457739,0.11936025649054209,0.19830193493240333,-0.16852406179674795,0.44184941407680217,0.00026345081587524923,-0.0003161231337861949,-0.03436500016842972,0.0017924716159441949,0.04481179039860487,0.00018504268479281388,0.00018504268479281388,-0.001843699767809882,-0.046092494195247045,-0.000196992273036871,-0.000196992273036871,-0.17216082583723338,-4.3040206459308346,-0.09658274151073508,-0.006438849434049005,-4.40060338744157,0.046289486468283916,-0.044996833083397685,0.0,0.24056915264725404,-0.32616657156343215,-0.8819263451011992,0.03771848652864683,0.004752744491791023,-0.051874343163855426,-0.004973504193433191,0,-3,163,0.0422672177148507,10.566804428712675,-12.68304538227168,-0.025366090764543364,-0.1576425097666842,-39.41062744167105,36.925447285187055,0.07385089457037411,31599.39661255843,31760.89661255843,31437.89661255843,31763.89661255843,31434.89661255843,15232.597335089227,15255.890492139257,15232.127698254766,15255.557086614048
78,0.156,0.0,0.0,0.003915391999999999,0.0,-0.0001412714708847987,0.0001669036891285171,0.021062855307457322,-0.0015400570781358798,0.001514777724891844,0.14438476969911962,0.008964803970599062,0.006541077454418585,0.12033354247180186,0.19651132176607283,-0.1682130764598227,0.5015394431862895,0.00026345081587524923,-0.0003161231337861949,-0.03436500016842972,0.0017924716159441949,0.04481179039860487,0.00018504268479281388,0.00018504268479281388,-0.001843699767809882,-0.046092494195247045,-0.000196992273036871,-0.000196992273036871,-0.17216082583723338,-4.3040206459308346,-0.09658274151073508,-0.006438849434049005,-4.40060338744157,0.046289486468283916,-0.044996833083397685,0.0,0.2384302765564683,-0.3244572032704241,-0.9111693294037725,0.037324682497684857,0.004827393856786393,-0.05153791053781627,-0.005076580014508823,0,-2,174,0.04191895479039548,10.47973869759887,-12.641126427481286,-0.02528225285496257,-0.1562441268106014,-39.061031702650354,36.76920315837645,0.0735384063167529,31599.39661255843,31772.39661255843,31426.39661255843,31774.39661255843,31424.39661255843,15221.567616352966,15235.24268906175,15221.183910371017,15234.896117796332
79,0.158,0.0,0.0,0.004014581037037037,0.0,-0.0001443551447933275,0.00016992800720617502,0.021354773863537537,-0.0015424195562446653,0.0015112737595086773,0.14648409610094404,0.00935526663667534,0.006204959096547324,0.1213890741635216,0.19488292514297886,-0.16812040928274896,0.5364719048523785,0.00026345081587524923,-0.0003161231337861949,-0.03436500016842972,0.0017924716159441949,0.04481179039860487,0.00018504268479281388,0.00018504268479281388,-0.001843699767809882,-0.046092494195247045,-0.000196992273036871,-0.000196992273036871,-0.17216082583723338,-4.3040206459308346,-0.09658274151073508,-0.006438849434049005,-4.40060338744157,0.046289486468283916,-0.044996833083397685,0.0,0.2363091058790003,-0.3227477038762762,-0.9321382970329114,0.03693421983160858,0.00490126229644961,-0.051201792179945006,-0.005178983598868713,0,-2,180,0.041426180736021445,10.35654518400536,-12.599700246745263,-0.025199400493490526,-0.15462729459352725,-38.65682364838182,36.614575863782925,0.07322915172756585,31599.39661255843,31778.39661255843,31420.39661255843,31780.39661255843,31418.39661255843,15211.670305022482,15216.341528840392,15211.364713915604,15215.982984569308
80,0.16,0.0,0.0,0.004114962962962964,0.0,-0.00014744334452971151,0.00017294510514100916,0.021650829250215033,-0.001544649309430224,0.0015076284472452673,0.14854220799547393,0.009742695998212921,0.005868741972389476,0.12247978603143538,0.19340188055772262,-0.16822580654911334,0.5482798256680227,0.0002941466148175913,-0.00034651979156278976,-0.03634879384785029,0.0018355695770000528,0.04588923942500132,0.00020339838056281442,0.00020339838056281442,-0.0018574467506587908,-0.04643616876646977,-0.0002155667405434589,-0.0002155667405434589,-0.18489100184332422,-4.6222750460831055,-0.1243163917872337,-0.008287759452482247,-4.7465914378703395,0.04665173550701323,-0.046092637805564135,0.0,0.23637947817920352,-0.3276169977429955,-0.9450840586464141,0.03690903950880031,0.00497508037546721,-0.05196137977795361,-0.00528290635842462,0,-3,183,0.0429775976214809,10.744399405370226,-12.556722649123781,-0.025113445298247564,-0.15939119119388218,-39.847797798470545,36.45518467258904,0.07291036934517808,31253.40856212966,31434.90856212966,31071.90856212966,31437.90856212966,31068.90856212966,15195.227533407364,15191.56161240215,15195.0149248875,15191.170078584406
81,0.162,0.0,0.0,0.004216535999999999,0.0,-0.00015053580265191093,0.00017595470733143838,0.021950912585110754,-0.0015467450059054718,0.0015038465166445185,0.15054146996254167,0.01012737189232178,0.005531905062296346,0.12356198393382098,0.1920550975544313,-0.16860775945028822,0.5386664382837572,0.0002941466148175913,-0.00034651979156278976,-0.03634879384785029,0.0018355695770000528,0.04588923942500132,0.00020339838056281442,0.00020339838056281442,-0.0018574467506587908,-0.04643616876646977,-0.0002155667405434589,-0.0002155667405434589,-0.18489100184332422,-4.6222750460831055,-0.1243163917872337,-0.008287759452482247,-4.7465914378703395,0.04665173550701323,-0.046092637805564135,0.0,0.23429056899623849,-0.3259057235396439,-0.9503344260611651,0.03652436361469145,0.005048129102696593,-0.05162454286786048,-0.005386155444160341,0,-2,183,0.0422354714418072,10.5588678604518,-12.514487177681975,-0.02502897435536395,-0.1572979640893557,-39.324491022338925,36.29788670849968,0.07259577341699937,31253.40856212966,31435.40856212966,31071.40856212966,31437.40856212966,31069.40856212966,15180.290426357406,15169.023485113254,15180.140613602995,15168.623822292018
82,0.164,0.0,0.0,0.004319298370370371,0.0,-0.00015363225265536767,0.0001789565419590857,0.02225491428021134,-0.0015487076982141248,0.0014999289012787432,0.1524872898542771,0.010509548383262929,0.005194070380050967,0.1245958244473553,0.19083050565554602,-0.16914462773846345,0.5096311510183,0.0002941466148175913,-0.00034651979156278976,-0.03634879384785029,0.0018355695770000528,0.04588923942500132,0.00020339838056281442,0.00020339838056281442,-0.0018574467506587908,-0.04643616876646977,-0.0002155667405434589,-0.0002155667405434589,-0.18489100184332422,-4.6222750460831055,-0.1243163917872337,-0.008287759452482247,-4.7465914378703395,0.04665173550701323,-0.046092637805564135,0.0,0.23221436317333408,-0.3241864356952853,-0.9483241177422912,0.0361421871237503,0.0051204134769440935,-0.0512867081856151,-0.005488728860531571,0,-1,179,0.04138385751778806,10.345964379447015,-12.473103320164187,-0.024946206640328372,-0.15504180795682188,-38.76045198920547,36.14284490054286,0.07228568980108573,31253.40856212966,31431.90856212966,31074.90856212966,31432.90856212966,31073.90856212966,15166.635166295926,15148.610790328214,15166.52070812477,15148.225600404356
83,0.166,0.0,0.0,0.004423248296296297,0.0,-0.00015673242967402835,0.00018195033888818867,0.022562734807907037,-0.0015505381358318652,0.0014958764128430767,0.15438457199273592,0.010889455907121608,0.004855086011427347,0.1255458421092759,0.18971709960678143,-0.16972626244095715,0.4634261550619984,0.0002941466148175913,-0.00034651979156278976,-0.03634879384785029,0.0018355695770000528,0.04588923942500132,0.00020339838056281442,0.00020339838056281442,-0.0018574467506587908,-0.04643616876646977,-0.0002155667405434589,-0.0002155667405434589,-0.18489100184332422,-4.6222750460831055,-0.1243163917872337,-0.008287759452482247,-4.7465914378703395,0.04665173550701323,-0.046092637805564135,0.0,0.23014949170778137,-0.32245821582644557,-0.9396063163656347,0.035762279599891623,0.005191938036143877,-0.05094772381699148,-0.0055906243081655545,0,-1,173,0.04043239210099994,10.108098025249985,-12.432670928063187,-0.024865341856126374,-0.15273195338548842,-38.182988346372106,35.99011294715737,0.07198022589431474,31253.40856212966,31425.90856212966,31080.90856212966,31426.90856212966,31079.90856212966,15154.09087479968,15130.1849482016,15154.008559233529,15129.812917567297
84,0.168,0.0,0.0,0.004528384000000001,0.0,-0.00015983607003151114,0.00018493582944483668,0.02287428376510825,-0.0015522368692085988,0.0014916897563667794,0.15623776462072156,0.01126730304558207,0.004514861560648742,0.12638108796814043,0.1887046453904961,-0.17034848638388014,0.40231173244305246,0.0002941466148175913,-0.00034651979156278976,-0.03634879384785029,0.0018355695770000528,0.04588923942500132,0.00020339838056281442,0.00020339838056281442,-0.0018574467506587908,-0.04643616876646977,-0.0002155667405434589,-0.0002155667405434589,-0.18489100184332422,-4.6222750460831055,-0.1243163917872337,-0.008287759452482247,-4.7465914378703395,0.04665173550701323,-0.046092637805564135,0.0,0.22809471547178714,-0.3207205141179712,-0.9247854881599418,0.03538443246143116,0.005262706901066739,-0.05060749936621288,-0.00569183930689798,-1,0,164,0.03939007008129103,9.847517520322757,-12.393280857981896,-0.02478656171596379,-0.15037202773409106,-37.593006933522766,35.839740919423285,0.07167948183884656,31253.40856212966,31417.90856212966,31089.90856212966,31416.90856212966,31088.90856212966,15142.513062453629,15113.630888597014,15142.416489690777,15113.27082411725
85,0.17,0.0,0.0,0.004634703703703704,0.0,-0.00016294291093900772,0.00018791274622380965,0.023189479025987912,-0.0015538043070486768,0.0014873695435820911,0.15805090316874562,0.011643135393484123,0.004173457782622728,0.12707531160222688,0.18768850594057815,-0.17091215222772835,0.328666826660255,0.00032505148423014104,-0.0003765473440012392,-0.03847938579452599,0.001875553161391861,0.04688882903479653,0.00022215391217673305,0.00022215391217673305,-0.001867359382085622,-0.046683984552140546,-0.00023424033436431513,-0.00023424033436431513,-0.19653028896327163,-4.913257224081791,-0.15379593513172446,-0.010253062342114963,-5.067053159213516,0.046918224886504864,-0.04711098294697326,0.0,0.2276503081982828,-0.32508986894264746,-0.9045260912515016,0.035275089493020745,0.0053332570800527805,-0.05128444072959599,-0.005794408188357172,-1,-2,152,0.039961802257704654,9.990450564426164,-12.35331905572419,-0.02470663811144838,-0.15417771671491912,-38.54442917872978,35.68556320270836,0.07137112640541672,30932.946840786484,31084.446840786484,30782.446840786484,31085.446840786484,30779.446840786484,15124.718896012508,15091.845583763568,15124.652958972338,15091.452360283756
86,0.172,0.0,0.0,0.004742205629629629,0.0,-0.00016605268806922212,0.00019088082894564272,0.02350821624838768,-0.0015552393039240146,0.0014829203388164894,0.1598078317827206,0.012016945553095374,0.003830690146794842,0.12760711073819417,0.1866687749137509,-0.17161416284830858,0.24493052203047766,0.00032505148423014104,-0.0003765473440012392,-0.03847938579452599,0.001875553161391861,0.04688882903479653,0.00022215391217673305,0.00022215391217673305,-0.001867359382085622,-0.046683984552140546,-0.00023424033436431513,-0.00023424033436431513,-0.19653028896327163,-4.913257224081791,-0.15379593513172446,-0.010253062342114963,-5.067053159213516,0.046918224886504864,-0.04711098294697326,0.0,0.22561685491661573,-0.32333891316624275,-0.8795478131179303,0.03490127933340949,0.0054030596387196,-0.050941673093768104,-0.0058962915345447085,-1,-1,139,0.03894808000286484,9.73702000071621,-12.314370975721326,-0.024628741951442653,-0.15172475031793417,-37.93118757948354,35.53383845239043,0.07106767690478086,30932.946840786484,31071.946840786484,30794.946840786484,31071.946840786484,30792.946840786484,15108.269146639495,15072.315277193233,15108.209203875704,15071.913882486127
87,0.174,0.0,0.0,0.004850887999999999,0.0,-0.0001691651374072679,0.00019383982029080098,0.02383039075743676,-0.0015565424268699328,0.001478342582052473,0.16151371375267287,0.012388726305648126,0.0034864393960262886,0.1279598780693882,0.18564600649647522,-0.17234578248608684,0.15348644258280775,0.00032505148423014104,-0.0003765473440012392,-0.03847938579452599,0.001875553161391861,0.04688882903479653,0.00022215391217673305,0.00022215391217673305,-0.001867359382085622,-0.046683984552140546,-0.00023424033436431513,-0.00023424033436431513,-0.19653028896327163,-4.913257224081791,-0.15379593513172446,-0.010253062342114963,-5.067053159213516,0.046918224886504864,-0.04711098294697326,0.0,0.22359334739278436,-0.32157699319568944,-0.8505897710259105,0.034529498580856736,0.0054721186358813135,-0.05059742234299955,-0.005997486379230707,-1,-1,125,0.037947340896309134,9.486835224077284,-12.276423634825017,-0.024552847269650034,-0.1492312107096026,-37.30780267740065,35.384607241680825,0.07076921448336165,30932.946840786484,31057.946840786484,30808.946840786484,31057.946840786484,30806.946840786484,15093.00874121325,15054.867844828635,15092.954247791622,15054.459031713188
88,0.176,0.0,0.0,0.004960749037037036,0.0,-0.00017227999578937273,0.00019678946381696734,0.02415590748348639,-0.0015577140612933627,0.0014736367116968518,0.16317323146694704,0.012758470654510193,0.003140645555050814,0.12812160161511793,0.18462054911388598,-0.17310420305294058,0.05660360590463857,0.00032505148423014104,-0.0003765473440012392,-0.03847938579452599,0.001875553161391861,0.04688882903479653,0.00022215391217673305,0.00022215391217673305,-0.001867359382085622,-0.046683984552140546,-0.00023424033436431513,-0.00023424033436431513,-0.19653028896327163,-4.913257224081791,-0.15379593513172446,-0.010253062342114963,-5.067053159213516,0.046918224886504864,-0.04711098294697326,0.0,0.22157983982500395,-0.3198037399208487,-0.8183836930472704,0.034159754231994674,0.005540438144345303,-0.050251628502024075,-0.006097989636234756,-1,0,110,0.036959290711117976,9.239822677779493,-12.2394643441139,-0.024478928688227798,-0.14669953686790813,-36.674884216977034,35.23790770481291,0.07047581540962583,30932.946840786484,31043.446840786484,30823.446840786484,31042.446840786484,30822.446840786484,15078.818553112942,15039.324839128902,15078.747142477676,15038.931241766717
89,0.178,0.0,0.0,0.005071786962962962,0.0,-0.00017539700063264418,0.00019972950396036,0.024484680068840962,-0.001558754466360426,0.0014688031675578342,0.16479063210152634,0.013126171840047933,0.002793398005401834,0.12808465291352972,0.1835927506627765,-0.1737913080498828,-0.04355195810335621,0.00032505148423014104,-0.0003765473440012392,-0.03847938579452599,0.001875553161391861,0.04688882903479653,0.00022215391217673305,0.00022215391217673305,-0.001867359382085622,-0.046683984552140546,-0.00023424033436431513,-0.00023424033436431513,-0.19653028896327163,-4.913257224081791,-0.15379593513172446,-0.010253062342114963,-5.067053159213516,0.046918224886504864,-0.04711098294697326,0.0,0.21957638503005622,-0.31801968090866906,-0.7836505268629261,0.03379205304645693,0.005608022250438217,-0.049904380952375094,-0.006197798398139506,-1,0,93,0.03598363436727972,8.99590859181993,-12.20348070974662,-0.02440696141949324,-0.14422837285878626,-36.057093214696565,35.09367933195413,0.07018735866390825,30932.946840786484,31026.446840786484,30840.446840786484,31025.446840786484,30839.446840786484,15065.546524452857,15025.567913769035,15065.45972854137,15025.18815496018
90,0.18,0.0,0.0,0.005184,0.0,-0.00017851588974799262,0.0002026596860422801,0.024816630059142343,-0.0015596638244533578,0.001463842393302145,0.16636976882579063,0.013491823267845704,0.002444826222746477,0.1278457624858265,0.18256284067923279,-0.17441366399804148,-0.1447962627296544,0.0003561264903784911,-0.00040611501795401574,-0.04073325841853797,0.0019125201201913018,0.04781300300478254,0.00024127911337864605,0.00024127911337864605,-0.0018734338881438357,-0.04683584720359589,-0.00025297467324575347,-0.00025297467324575347,-0.2071030272443286,-5.177575681108215,-0.18486138921837375,-0.01232409261455825,-5.362437070326589,0.047088821876841644,-0.048054282118161186,0.0,0.21860764039694427,-0.32189103988990997,-0.7471330737515514,0.03359699860899594,0.005675216247656208,-0.050499108340907664,-0.006298796614821321,-1,-1,77,0.03604479971771149,9.011199929427873,-12.167435910028908,-0.024334871820057818,-0.1474773758918685,-36.86934397296712,34.94620195606226,0.06989240391212452,30637.56292967341,30714.56292967341,30561.56292967341,30714.56292967341,30559.56292967341,15046.64073360188,15006.928213674333,15046.561828227801,15006.538892197248
91,0.182,0.0,0.0,0.00529738637037037,0.0,-0.0001816364000533997,0.00020557976267405917,0.025151658783485575,-0.0015604414887077124,0.0014587591110936983,0.1678958797172656,0.013855418522155084,0.0020949049828750807,0.12740556060575095,0.18153101458120763,-0.17507280778414042,-0.24525748940549702,0.0003561264903784911,-0.00040611501795401574,-0.04073325841853797,0.0019125201201913018,0.04781300300478254,0.00024127911337864605,0.00024127911337864605,-0.0018734338881438357,-0.04683584720359589,-0.00025297467324575347,-0.00025297467324575347,-0.2071030272443286,-5.177575681108215,-0.18486138921837375,-0.01232409261455825,-5.362437070326589,0.047088821876841644,-0.048054282118161186,0.0,0.21662546929121612,-0.3200924075732878,-0.7095171694271544,0.03323340335468656,0.0057416830543655815,-0.05014918710103627,-0.006399094989023394,-2,0,60,0.035094454710008494,8.773613677502123,-12.132341455318901,-0.0242646829106378,-0.14501959978914736,-36.25489994728684,34.80118235627312,0.06960236471254623,30637.56292967341,30698.56292967341,30578.56292967341,30696.56292967341,30576.56292967341,15029.101800899425,14990.357706211473,15028.986081030902,14989.959703656488
92,0.184,0.0,0.0,0.005411944296296296,0.0,-0.00018475826873179212,0.00020848948926947545,0.025489667491632065,-0.001561087834968032,0.0014535536045426215,0.16937383235380093,0.014216807847056949,0.001743708038778866,0.12676833196541507,0.18040173103704074,-0.1756695302146272,-0.34312328273998816,0.0003561264903784911,-0.00040611501795401574,-0.04073325841853797,0.0019125201201913018,0.04781300300478254,0.00024127911337864605,0.00024127911337864605,-0.0018734338881438357,-0.04683584720359589,-0.00025297467324575347,-0.00025297467324575347,-0.2071030272443286,-5.177575681108215,-0.18486138921837375,-0.01232409261455825,-5.362437070326589,0.047088821876841644,-0.048054282118161186,0.0,0.21465436542598362,-0.3182840138496521,-0.6714676512035097,0.032872014029784694,0.0058074270824251505,-0.04979799015694005,-0.006498690969337274,-2,0,44,0.03425263438894288,8.56315859723572,-12.098088820929958,-0.024196177641859915,-0.1426144836350249,-35.653620908756224,34.65856787263809,0.06931713574527618,30637.56292967341,30682.56292967341,30594.56292967341,30680.56292967341,30592.56292967341,15012.805374810236,14975.646148158263,15012.656175751501,14975.24026524081
93,0.186,0.0,0.0,0.005527671999999999,0.0,-0.00018788123357211915,0.0002113886218742398,0.025830566489566175,-0.0015616031482784936,0.0014482262065221246,0.17080804169497488,0.0145758073022091,0.001391351004850312,0.12594156437289045,0.1791840610353518,-0.1762095994305215,-0.4368623405129253,0.0003561264903784911,-0.00040611501795401574,-0.04073325841853797,0.0019125201201913018,0.04781300300478254,0.00024127911337864605,0.00024127911337864605,-0.0018734338881438357,-0.04683584720359589,-0.00025297467324575347,-0.00025297467324575347,-0.2071030272443286,-5.177575681108215,-0.18486138921837375,-0.01232409261455825,-5.362437070326589,0.047088821876841644,-0.048054282118161186,0.0,0.2126954467825185,-0.3164665454448189,-0.6335896121440794,0.03251301457463254,0.005872453111574415,-0.0494456331230115,-0.006597582235583297,-2,0,28,0.033511385747166694,8.377846436791673,-12.064577435182791,-0.02412915487036558,-0.1402569460142974,-35.06423650357435,34.51831092662379,0.06903662185324758,30637.56292967341,30666.56292967341,30610.56292967341,30664.56292967341,30608.56292967341,14997.63840841234,14962.624451942265,14997.458762249178,14962.211416576421
94,0.188,0.0,0.0,0.005644567703703703,0.0,-0.00019100503286630297,0.00021427691732364557,0.026174274298631204,-0.0015619876687513953,0.0014427773321333947,0.17220251299680236,0.014932249866333822,0.0010379396579234834,0.12493559321064261,0.17788621537311028,-0.17669825112851936,-0.5250867126504294,0.0003561264903784911,-0.00040611501795401574,-0.04073325841853797,0.0019125201201913018,0.04781300300478254,0.00024127911337864605,0.00024127911337864605,-0.0018734338881438357,-0.04683584720359589,-0.00025297467324575347,-0.00025297467324575347,-0.2071030272443286,-5.177575681108215,-0.18486138921837375,-0.01232409261455825,-5.362437070326589,0.047088821876841644,-0.048054282118161186,0.0,0.21074973082983325,-0.3146406306939144,-0.5964430316554509,0.032156572010507825,0.005936766255595431,-0.04909222177608467,-0.006695766679135466,-2,0,13,0.032863515456722975,8.215878864180743,-12.031713919726068,-0.024063427839452135,-0.13794237956539504,-34.48559489134876,34.380368547058396,0.06876073709411679,30637.56292967341,30651.56292967341,30625.56292967341,30649.56292967341,30623.56292967341,14983.520142236826,14951.116882147062,14983.312806120008,14950.697355344859
95,0.19,0.0,0.0,0.005762629629629631,0.0,-0.0001941294053282744,0.00021715413339862486,0.02652071689426829,-0.0015622415975213087,0.0014372074731433798,0.17356088057545588,0.015285983921837162,0.0006835708827417211,0.12376316975682064,0.1765156288073438,-0.17714023930333833,-0.6066484501319787,0.0003873197672488637,-0.0004351459209956528,-0.043087963265853804,0.0019464532468839294,0.048661331172098234,0.0002607436458474853,0.0002607436458474853,-0.0018757245972803468,-0.04689311493200867,-0.00027173191921855695,-0.00027173191921855695,-0.21664884384130967,-5.416221096032742,-0.2173587157945702,-0.014490581052971347,-5.633579811827312,0.04716484685122723,-0.04892207481794572,0.0,0.20927474952070307,-0.3180188081157352,-0.5605268662465586,0.03187886292939007,0.006000523981454211,-0.04960564570068744,-0.006794977970536841,-2,0,0,0.03275912071335926,8.189780178339817,-11.998954799012708,-0.023997909598025415,-0.14087856881239685,-35.21964220309921,34.239489978246,0.06847897995649199,30366.420188172688,30367.420188172688,30367.420188172688,30365.420188172688,30365.420188172688,14964.416711366774,14934.95920219426,14964.18399708713,14934.533587291538
96,0.192,0.0,0.0,0.005881856,0.0,-0.00019725408968720626,0.00022002003562439254,0.02686980189031424,-0.001562364886382562,0.0014315216369338822,0.17486969207594588,0.01563687146434497,0.00032833372463779485,0.12243889427545855,0.17507875655567284,-0.1775397134998754,-0.6806975430112587,0.0003873197672488637,-0.0004351459209956528,-0.043087963265853804,0.0019464532468839294,0.048661331172098234,0.0002607436458474853,0.0002607436458474853,-0.0018757245972803468,-0.04689311493200867,-0.00027173191921855695,-0.00027173191921855695,-0.21664884384130967,-5.416221096032742,-0.2173587157945702,-0.014490581052971347,-5.633579811827312,0.04716484685122723,-0.04892207481794572,0.0,0.2073585921179775,-0.31618288761836716,-0.5262519863274165,0.03152797538688226,0.006063579932227976,-0.049250408542583515,-0.006893478787622008,-2,0,-13,0.032279835562304654,8.069958890576164,-11.966674963450403,-0.023933349926900806,-0.13864317411849175,-34.660793529622936,34.10084680412751,0.06820169360825501,30366.420188172688,30354.420188172688,30380.420188172688,30352.420188172688,30378.420188172688,14946.762455136672,14920.55784159926,14946.506660330007,14920.126701523532
97,0.194,0.0,0.0,0.0060022450370370364,0.0,-0.00020037882520076842,0.00022287439266817797,0.027221436995115658,-0.0015623578940037492,0.0014257202391892289,0.17613349446188628,0.015984787239206162,-2.769007296342675e-05,0.12097890479968156,0.17358177202008246,-0.17790063777295778,-0.7464921475217103,0.0003873197672488637,-0.0004351459209956528,-0.043087963265853804,0.0019464532468839294,0.048661331172098234,0.0002607436458474853,0.0002607436458474853,-0.0018757245972803468,-0.04689311493200867,-0.00027173191921855695,-0.00027173191921855695,-0.21664884384130967,-5.416221096032742,-0.2173587157945702,-0.014490581052971347,-5.633579811827312,0.04716484685122723,-0.04892207481794572,0.0,0.20545817782648246,-0.31434011114122967,-0.49398405825974523,0.03118005961202107,0.006125940051452018,-0.0488943847449823,-0.006991267557111973,-2,0,-25,0.0318764058064,7.969101451599999,-11.934798557644003,-0.023869597115288004,-0.1364394733682719,-34.10986834206797,33.96440733075924,0.06792881466151847,30366.420188172688,30342.420188172688,30392.420188172688,30340.420188172688,30390.420188172688,14930.447691202764,14907.730969666043,14930.170905351955,14907.294815436217
98,0.196,0.0,0.0,0.006123794962962964,0.0,-0.0002035033517638474,0.00022571697413669903,0.027575538377848614,-0.0015622209255855798,0.0014198037675503226,0.17735641263512755,0.016329617757122,-0.00038442548035140354,0.11940055353548899,0.17203026033928273,-0.17822660747874455,-0.8034700948714556,0.0003873197672488637,-0.0004351459209956528,-0.043087963265853804,0.0019464532468839294,0.048661331172098234,0.0002607436458474853,0.0002607436458474853,-0.0018757245972803468,-0.04689311493200867,-0.00027173191921855695,-0.00027173191921855695,-0.21664884384130967,-5.416221096032742,-0.2173587157945702,-0.014490581052971347,-5.633579811827312,0.04716484685122723,-0.04892207481794572,0.0,0.20357420609355206,-0.31249092459292743,-0.46403943880893667,0.03083522909410523,0.006187610509640228,-0.048537649337594316,-0.007088342855787162,-2,0,-35,0.03154394575426933,7.885986438567333,-11.903254611889734,-0.023806509223779467,-0.13426431711418288,-33.56607927854572,33.83014301364505,0.0676602860272901,30366.420188172688,30332.420188172688,30402.420188172688,30330.420188172688,30400.420188172688,14915.39484745451,14896.291198715951,14915.098971543286,14895.850493435644
99,0.198,0.0,0.0,0.006246504000000001,0.0,-0.00020662740981199025,0.00022854755071355192,0.02793202988436584,-0.0015619542397883102,0.0014137727772813703,0.17854218941593827,0.016671260232727116,-0.000741803615929087,0.11772190733049387,0.17042927711596823,-0.17852088430613294,-0.8513423448368307,0.0003873197672488637,-0.0004351459209956528,-0.043087963265853804,0.0019464532468839294,0.048661331172098234,0.0002607436458474853,0.0002607436458474853,-0.0018757245972803468,-0.04689311493200867,-0.00027173191921855695,-0.00027173191921855695,-0.21664884384130967,-5.416221096032742,-0.2173587157945702,-0.014490581052971347,-5.633579811827312,0.04716484685122723,-0.04892207481794572,0.0,0.20170731275963238,-0.31063573740667344,-0.4366513907531786,0.030493586618500115,0.0062485976828772286,-0.048180271202016636,-0.007184703398191195,-2,1,-44,0.03127803564366416,7.81950891091604,-11.87197657624607,-0.02374395315249214,-0.1321148531005405,-33.028713275135125,33.69802816054451,0.06739605632108903,30366.420188172688,30323.920188172688,30410.920188172688,30320.920188172688,30409.920188172688,14901.522361225223,14886.0792468241,14901.186994658174,14885.656508213287
100,0.2,0.0,0.0,0.00637037037037037,0.0,-0.00020975074023747847,0.00023136589428836716,0.028290842326912133,-0.0015615580548416473,0.0014076278872228612,0.17969422146176675,0.017009621439172517,-0.001099618102687005,0.11596140577051306,0.16878328007908802,-0.17869102043948934,-0.8899567228135751,0.0004185640952083934,-0.00046357987281857175,-0.045522335009442715,0.0019772700439503192,0.049431751098757984,0.00028051634628698853,0.00028051634628698853,-0.0018743653252828569,-0.04685913313207142,-0.0002904755724713855,-0.0002904755724713855,-0.22521655647120947,-5.630413911780237,-0.25114119926525164,-0.016742746617683442,-5.881555111045489,0.04714960870454281,-0.04971226744504497,0.0,0.19976655656444567,-0.3135216821447755,-0.41199561708233984,0.030139987265370292,0.006308877657407969,-0.04861264934235796,-0.007281928696875911,-2,0,-52,0.030983276485357647,7.745819121339411,-11.840993299760711,-0.023681986599521424,-0.13483066170528615,-33.70766542632154,33.56319749883923,0.06712639499767846,30118.44488895451,30067.44488895451,30171.44488895451,30065.44488895451,30169.44488895451,14883.223431550627,14871.493446104381,14882.874105872526,14871.064767967911
101,0.202,0.0,0.0,0.006495392296296298,0.0,-0.00021287308476689699,0.00023417178485063013,0.028651889874740242,-0.001561032868056602,0.0014013742985192659,0.18080028136689952,0.017344616909295806,-0.0014577761019491835,0.11413765844469273,0.1670963886438572,-0.178843786561852,-0.9192506374306371,0.0004185640952083934,-0.00046357987281857175,-0.045522335009442715,0.0019772700439503192,0.049431751098757984,0.00028051634628698853,0.00028051634628698853,-0.0018743653252828569,-0.04685913313207142,-0.0002904755724713855,-0.0002904755724713855,-0.22521655647120947,-5.630413911780237,-0.25114119926525164,-0.016742746617683442,-5.881555111045489,0.04714960870454281,-0.04971226744504497,0.0,0.1979354136944774,-0.31166226109726103,-0.3902133994223913,0.029804991795247003,0.0063684876409984634,-0.048254491343095784,-0.007378437679562103,-1,0,-58,0.030839025050620195,7.709756262655048,-11.810154274710092,-0.023620308549420183,-0.13281847453540904,-33.20461863385226,33.43037902430382,0.06686075804860764,30118.44488895451,30060.94488895451,30176.94488895451,30059.94488895451,30175.94488895451,14866.443582844311,14858.355638034285,14866.10378833788,14857.94374768892
102,0.204,0.0,0.0,0.006621567999999998,0.0,-0.00021599418596411185,0.00023696500573576915,0.029015086908785216,-0.0015603790566539025,0.0013950124995667167,0.18186458590604007,0.017676313666320526,-0.0018162405488441901,0.11226900409678114,0.16546799500366205,-0.17898094664019665,-0.9394255243510936,0.0004185640952083934,-0.00046357987281857175,-0.045522335009442715,0.0019772700439503192,0.049431751098757984,0.00028051634628698853,0.00028051634628698853,-0.0018743653252828569,-0.04685913313207142,-0.0002904755724713855,-0.0002904755724713855,-0.22521655647120947,-5.630413911780237,-0.25114119926525164,-0.016742746617683442,-5.881555111045489,0.04714960870454281,-0.04971226744504497,0.0,0.19612207292255843,-0.3097988505772682,-0.37136728247714546,0.029473295038222283,0.0064274342310749084,-0.04789602689620078,-0.0074742297333545045,-2,0,-63,0.030654077918896377,7.663519479724094,-11.779500196791194,-0.02355900039358239,-0.13081790393707154,-32.70447598426789,33.29956112036675,0.0665991222407335,30118.44488895451,30056.44488895451,30182.44488895451,30054.44488895451,30180.44488895451,14851.089156331309,14846.534175800156,14850.735797120931,14846.115367809574
103,0.206,0.0,0.0,0.006748895703703703,0.0,-0.0002191137870649151,0.0002397453413120987,0.029380355657161225,-0.0015595969429188627,0.0013885430104307948,0.18289096094360172,0.018004677343600808,-0.0021749771280952504,0.110373242080266,0.1637971594892843,-0.17910385173855442,-0.9507738314997557,0.0004185640952083934,-0.00046357987281857175,-0.045522335009442715,0.0019772700439503192,0.049431751098757984,0.00028051634628698853,0.00028051634628698853,-0.0018743653252828569,-0.04685913313207142,-0.0002904755724713855,-0.0002904755724713855,-0.22521655647120947,-5.630413911780237,-0.25114119926525164,-0.016742746617683442,-5.881555111045489,0.04714960870454281,-0.04971226744504497,0.0,0.1943267604470424,-0.3079316548436635,-0.3554696148565921,0.029144931360942,0.006485724093796792,-0.04753729031694972,-0.007569304313988404,-2,1,-66,0.030529600957758085,7.632400239439521,-11.748970595833436,-0.02349794119166687,-0.1288278031051091,-32.206950776277274,33.17073331726164,0.06634146663452328,30118.44488895451,30053.94488895451,30184.94488895451,30050.94488895451,30183.94488895451,14837.075017650894,14835.842842661674,14836.687096006419,14835.439928116057
104,0.208,0.0,0.0,0.00687737362962963,0.0,-0.00022223163187774623,0.00024251257702548475,0.029747625468720985,-0.0015586868012947984,0.0013819663824242052,0.18388287835343536,0.018329629126121405,-0.0025338110503658586,0.10846729724341861,0.16208769508191767,-0.1791184273520522,-0.9537810479051868,0.0004185640952083934,-0.00046357987281857175,-0.045522335009442715,0.0019772700439503192,0.049431751098757984,0.00028051634628698853,0.00028051634628698853,-0.0018743653252828569,-0.04685913313207142,-0.0002904755724713855,-0.0002904755724713855,-0.22521655647120947,-5.630413911780237,-0.25114119926525164,-0.016742746617683442,-5.881555111045489,0.04714960870454281,-0.04971226744504497,0.0,0.19254996962938933,-0.306061722048408,-0.34246888687185184,0.028819979578421404,0.006543364052953635,-0.04717845639467911,-0.007663661226777762,-1,1,-68,0.030462274547471663,7.615568636867915,-11.718508321285963,-0.023437016642571928,-0.1269432946963558,-31.735823674088948,33.04379002256529,0.06608758004513057,30118.44488895451,30051.44488895451,30186.44488895451,30049.44488895451,30186.44488895451,14824.279320143372,14826.156718223638,14823.8822052911,14825.790432273077
105,0.21,0.0,0.0,0.007006999999999999,0.0,-0.00022534746474043096,0.0002452664995219554,0.030116832154842437,-0.0015576488990151852,0.001375283231839855,0.18484348919709143,0.01865124078158305,-0.002892535767511834,0.10656702652900353,0.16043853614920348,-0.1790348229902827,-0.9489972715733702,0.00044978178580294133,-0.0004913704180866909,-0.04801660456681828,0.002004870040190205,0.050121751004755126,0.0003005650466888906,0.0003005650466888906,-0.0018695484114713873,-0.04673871028678468,-0.00030917105658609937,-0.00030917105658609937,-0.2328600937639097,-5.821502344097743,-0.2860702133298381,-0.01907134755532254,-6.107572557427581,0.04704788134337078,-0.05042231605144402,0.0,0.19018031537295804,-0.30845484406563,-0.332273368064074,0.02839664056178773,0.00660015733407721,-0.047529780283932184,-0.007758720787345626,-2,0,-69,0.029741779223754566,7.4354448059386415,-11.68876654206221,-0.023377533084124418,-0.1294200210753473,-32.35500526883683,32.914370001489935,0.06582874000297988,29892.427442572418,29824.427442572418,29962.427442572418,29822.427442572418,29960.427442572418,14807.590922235944,14812.37335382741,14807.185281031461,14811.995841791688
106,0.212,0.0,0.0,0.007137773037037038,0.0,-0.00022846103159510688,0.00024800690349791293,0.03048789647364682,-0.0015564842234620474,0.0013684987210151472,0.18576170774615022,0.0189694824208668,-0.003251106363516248,0.1046871357093576,0.1587487744336654,-0.17895733518834564,-0.9370066164971791,0.00044978178580294133,-0.0004913704180866909,-0.04801660456681828,0.002004870040190205,0.050121751004755126,0.0003005650466888906,0.0003005650466888906,-0.0018695484114713873,-0.04673871028678468,-0.00030917105658609937,-0.00030917105658609937,-0.2328600937639097,-5.821502344097743,-0.2860702133298381,-0.01907134755532254,-6.107572557427581,0.04704788134337078,-0.05042231605144402,0.0,0.18843933593079057,-0.3065864477477311,-0.3247698790022181,0.028078398922503984,0.006656314131922218,-0.04717120968792777,-0.007853063206721482,-2,0,-68,0.02969056149712518,7.422640374281294,-11.659075980565083,-0.023318151961130167,-0.12762911255938544,-31.907278139846362,32.78674088893056,0.06557348177786111,29892.427442572418,29825.427442572418,29961.427442572418,29823.427442572418,29959.427442572418,14792.44196470109,14799.820760339902,14792.028573015503,14799.433042029159
107,0.214,0.0,0.0,0.0072696909629629625,0.0,-0.00023157207948988162,0.0002507335868333505,0.030860739470983948,-0.0015551931686132465,0.001361613250454768,0.186641420925953,0.019284279526562212,-0.0036095295154661986,0.10284086956792732,0.1570221672935787,-0.17888543235996404,-0.9185883799167268,0.00044978178580294133,-0.0004913704180866909,-0.04801660456681828,0.002004870040190205,0.050121751004755126,0.0003005650466888906,0.0003005650466888906,-0.0018695484114713873,-0.04673871028678468,-0.00030917105658609937,-0.00030917105658609937,-0.2328600937639097,-5.821502344097743,-0.2860702133298381,-0.01907134755532254,-6.107572557427581,0.04704788134337078,-0.05042231605144402,0.0,0.18671713490751896,-0.3047167855552472,-0.31978228258051034,0.02776360181680857,0.006711841335555835,-0.04681278653597782,-0.007946688779793439,-2,1,-66,0.02969496761394025,7.4237419034850625,-11.629381012951143,-0.023258762025902286,-0.12583135319528319,-31.457838298820796,32.66090953573527,0.06532181907147054,29892.427442572418,29827.927442572418,29958.927442572418,29824.927442572418,29957.927442572418,14778.725966712665,14788.353654543935,14778.283217902406,14787.978919833746
108,0.216,0.0,0.0,0.007402751999999999,0.0,-0.00023468035617693768,0.0002534463483236792,0.031235289426649573,-0.0015537760727513796,0.001354627296925122,0.18748615572840036,0.019595564597101746,-0.0039676680677837636,0.10103985851347645,0.15526204389083767,-0.17872318255904096,-0.8945590128173038,0.00044978178580294133,-0.0004913704180866909,-0.04801660456681828,0.002004870040190205,0.050121751004755126,0.0003005650466888906,0.0003005650466888906,-0.0018695484114713873,-0.04673871028678468,-0.00030917105658609937,-0.00030917105658609937,-0.2328600937639097,-5.821502344097743,-0.2860702133298381,-0.01907134755532254,-6.107572557427581,0.04704788134337078,-0.05042231605144402,0.0,0.18501413838475933,-0.3028466821292438,-0.3170979361922302,0.027452316746269037,0.006766745969048373,-0.04645464798366025,-0.008039598075760759,-1,1,-64,0.02975209449392166,7.438023623480415,-11.59962891845722,-0.02319925783691444,-0.12412349957020286,-31.030874892550713,32.53678603616507,0.06507357207233014,29892.427442572418,29829.427442572418,29956.427442572418,29827.427442572418,29956.427442572418,14766.290345463447,14777.873353418001,14765.843222583137,14777.532685499647
109,0.218,0.0,0.0,0.007536954370370372,0.0,-0.00023778561005446307,0.00025614498782473545,0.0316114811852302,-0.0015522332596623527,0.0013475414084399265,0.18829911301947025,0.019903419627941683,-0.0043253499141804475,0.09929421487481178,0.15356688334931373,-0.17847903470837378,-0.8656584092179674,0.00044978178580294133,-0.0004913704180866909,-0.04801660456681828,0.002004870040190205,0.050121751004755126,0.0003005650466888906,0.0003005650466888906,-0.0018695484114713873,-0.04673871028678468,-0.00030917105658609937,-0.00030917105658609937,-0.2328600937639097,-5.821502344097743,-0.2860702133298381,-0.01907134755532254,-6.107572557427581,0.04704788134337078,-0.05042231605144402,0.0,0.1833298749700123,-0.30097717284768727,-0.31651196055257647,0.0271444617154291,0.006821034892479231,-0.04609696613726357,-0.008131792008035287,-2,1,-60,0.029762991620698565,7.440747905174641,-11.569865926836522,-0.023139731853673046,-0.12249813813931348,-30.62453453482837,32.414287898025755,0.06482857579605152,29892.427442572418,29833.927442572418,29952.927442572418,29830.927442572418,29951.927442572418,14755.085633681825,14768.267879747373,14754.612226880847,14767.935915891398
110,0.22,0.0,0.0,0.007672296296296296,0.0,-0.00024088759020232228,0.0002588293063456781,0.031989255549859166,-0.001550565075491422,0.0013403561655422002,0.18908319821090974,0.020207823964305347,-0.004682418898398323,0.09761234389653266,0.15183538791219792,-0.17816050913396947,-0.8327779950087298,0.00048089256905686333,-0.0005184786406144011,-0.05055244356052696,0.0020291718885528287,0.05072929721382072,0.00032085676557441886,0.00032085676557441886,-0.0018614744904448535,-0.04653686226112134,-0.0003277858014905479,-0.0003277858014905479,-0.2396356417714367,-5.990891044285918,-0.3220155595955536,-0.021467703973036906,-6.312906603881471,0.04686464806261188,-0.051050153979395135,0.0,0.18056399021186675,-0.3028799929205727,-0.3177761749381645,0.026656824098306536,0.006874348540675844,-0.046367735080996814,-0.008224527478197281,-2,0,-56,0.028728602299668837,7.182150574917209,-11.541137324536853,-0.023082274649073708,-0.12471948378660325,-31.179870946650812,32.289568414239156,0.06457913682847831,29687.09339611853,29632.09339611853,29744.09339611853,29630.09339611853,29742.09339611853,14740.388988096525,14754.877690355777,14739.913845971143,14754.531217102209
111,0.222,0.0,0.0,0.007808775999999999,0.0,-0.00024398604795010823,0.0002614991127575184,0.03236853973969392,-0.0015487729110614725,0.0013330766277982388,0.18982838696693904,0.020508711251864743,-0.005038876408782408,0.09600100778725029,0.15007084404591942,-0.17786982212644237,-0.7967160217045418,0.00048089256905686333,-0.0005184786406144011,-0.05055244356052696,0.0020291718885528287,0.05072929721382072,0.00032085676557441886,0.00032085676557441886,-0.0018614744904448535,-0.04653686226112134,-0.0003277858014905479,-0.0003277858014905479,-0.2396356417714367,-5.990891044285918,-0.3220155595955536,-0.021467703973036906,-6.312906603881471,0.04686464806261188,-0.051050153979395135,0.0,0.17891680210737487,-0.3010173155236919,-0.3206437623724779,0.02635593681074714,0.006927060414297338,-0.04601127757061273,-0.008316550033338506,-2,1,-52,0.028845958061455457,7.211489515363864,-11.512291366475397,-0.023024582732950796,-0.12314749339724951,-30.786873349312376,32.1664209208419,0.06433284184168381,29687.09339611853,29636.59339611853,29739.59339611853,29633.59339611853,29738.59339611853,14727.129133365952,14742.604240953513,14726.630032052275,14742.266919800863
